time,seconds_elapsed,z,y,x
1686343465046641200,0.11264111328125,0.3574445609588176,0.030969723281264305,0.043932701761461794
1686343465056660000,0.122659912109375,0.2925789978165179,0.023011457753181457,0.04318860539589077
1686343465066679000,0.132678955078125,0.20127185634188352,0.021612112349271774,0.062311165951751166
1686343465076699100,0.14269921875,0.11053418531827627,-0.009034954848885536,0.01793894026186317
1686343465086718200,0.15271826171875,0.04545483329482376,-0.04318038555681705,-0.043709925856254994
1686343465096737000,0.162737060546875,0.023879472759366034,-0.05453823039531708,-0.007120937921106815
1686343465106756000,0.172756103515625,-0.04110182571709156,-0.04700140514969826,-0.03140256174057722
1686343465116776000,0.18277587890625,-0.09892733415476977,-0.05699614494144916,-0.038711386916600164
1686343465126795000,0.192794921875,-0.19177973231002687,-0.04541501274108886,0.0004907791916280985
1686343465136814000,0.20281396484375,-0.26789514987170693,-0.04290273765921592,-0.0623775457188487
1686343465146833000,0.2128330078125,-0.2775830156713724,-0.0574082328736782,-0.08244798158407211
1686343465156852000,0.22285205078125,-0.23972704000771045,-0.063486676004529,-0.040625440376996995
1686343465166872000,0.2328720703125,-0.22418979059271513,-0.062335167881846426,-0.01858951312508434
1686343465176891100,0.24289111328125,-0.18970014955699444,-0.06486907027363777,-0.022922610425949095
1686343465186910000,0.252909912109375,-0.10863682726435363,-0.056605099797248835,0.006978351112641393
1686343465196929000,0.262928955078125,-0.042209421632811425,-0.03486673071980476,0.049144006668962535
1686343465206948000,0.272947998046875,-0.021608605217933653,0.004227262306213378,0.06002221476435661
1686343465216968000,0.282968017578125,0.006844166806340217,0.017127660411596298,0.027834347864985464
1686343465226987000,0.292987060546875,0.09425422777719795,0.03881868321597576,0.03596362257841974
1686343465237005800,0.303005859375,0.18845109934397042,0.03842588450610637,0.04401073543373495
1686343465247025000,0.31302490234375,0.2596761145155877,0.023788287344574926,0.03442567242141813
1686343465257045000,0.323044921875,0.271530364568904,0.0036152678877115246,0.00043755116704851386
1686343465267064000,0.33306396484375,0.19439736746251582,0.004237199178338051,-0.012804828776419162
1686343465277083000,0.343082763671875,0.1372031426656991,0.00040039749443531033,-0.03157875855769962
1686343465287102000,0.35310205078125,0.07300970663130282,0.003029576954245567,-0.019885726948082445
1686343465297121000,0.36312109375,0.003434723689034581,-0.008208440896868705,-0.010921170454286038
1686343465307141000,0.37314111328125,-0.04870820906758308,-0.020391046121716497,-0.03199234432727098
1686343465317160000,0.383159912109375,-0.11880115146934986,-0.01799684446156025,0.014936287847161292
1686343465327179000,0.393178955078125,-0.15685644909739493,-0.003740355572104454,0.0229834007024765
1686343465337198000,0.403197998046875,-0.16174064094237983,0.006487023931741714,0.016992964648641647
1686343465347217200,0.413217041015625,-0.21770627379231153,-0.0025181203007698058,-0.013820399027131497
1686343465357237000,0.423237060546875,-0.22457732860557733,-0.04478898979723453,-0.026519429341517388
1686343465367255800,0.433255859375,-0.16955284906327722,-0.07031564524173736,-0.007839899845421314
1686343465377275000,0.44327490234375,-0.12808452812135218,-0.0698608872115612,-0.008380874854326247
1686343465387294000,0.4532939453125,-0.07270524379201233,-0.05986614741981029,0.02440053749140352
1686343465397314000,0.46331396484375,0.014599091782048344,-0.061918988296389574,0.04408409293089062
1686343465407332900,0.473332763671875,0.056942368927598,-0.041781040152907366,0.029487375769019126
1686343465417352000,0.48335205078125,0.058785366445779794,-0.01321662444770336,0.0019669161587953566
1686343465427371000,0.49337109375,0.047915085928514595,-0.0007253916651010513,-0.03847962398733944
1686343465437390000,0.50339013671875,0.06526011541783809,0.004423661661148071,-0.04529547801464796
1686343465447410200,0.51341015625,0.08003500215820968,0.007797522008419037,-0.030765469413436948
1686343465457429000,0.523428955078125,0.07390570562295615,-0.0010918868899345397,-0.008247348135150968
1686343465467448000,0.533447998046875,0.07108662961423397,-0.0030897827088832855,0.03450286584347486
1686343465477467100,0.543467041015625,0.04599076680243015,0.0016787468671798705,0.04181465016156435
1686343465487487000,0.553487060546875,0.030130934369564055,0.01213175182044506,0.024676468355953694
1686343465497506000,0.563506103515625,-0.019639862428233026,0.009422492861747742,0.05964260432962328
1686343465507525000,0.573525146484375,-0.05439436494521797,0.01979015761911869,0.017988405426777897
1686343465517544200,0.583544189453125,-0.07688735178224743,-0.004839841246604919,-0.0478705526670441
1686343465527563000,0.59356298828125,-0.05605155756771564,-0.011705050840973853,-0.04897650461494922
1686343465537583000,0.6035830078125,-0.05902268233299255,-0.025764555853605268,-0.02910685201883316
1686343465547602200,0.613602294921875,-0.0890239259082824,-0.03392740404307842,-0.022268566964007912
1686343465557621200,0.623621337890625,-0.10265366120152175,-0.03620470132529735,-0.03229538239445537
1686343465567640300,0.633640380859375,-0.07418634919524192,-0.04592062417566776,-0.0332332842990756
1686343465577660400,0.643660400390625,-0.11941665301918983,-0.05005436297953129,-0.03991495402008295
1686343465587679200,0.65367919921875,-0.09684358668327331,-0.033199089768528936,-0.04160802167356014
1686343465597698300,0.6636982421875,-0.07456636148877441,-0.01483048938512802,-0.03128540163431316
1686343465607717400,0.67371728515625,-0.07214234921224415,-0.011580547678470611,-0.0070572615677490826
1686343465617736200,0.683736083984375,-0.015815993291139602,-0.022865911802649498,-0.008751169471442699
1686343465627756000,0.693756103515625,0.017659063874557613,-0.02568564539849758,-0.008536613405309618
1686343465637775000,0.703775146484375,0.04307115302868187,-0.03439911320805549,-0.0000972863620147109
1686343465647794200,0.713794189453125,0.0726631582159549,-0.03896013751327991,-0.002080569133721292
1686343465657813200,0.723813232421875,0.09719846453554928,-0.04495440949201584,0.019101919626630843
1686343465667832000,0.73383203125,0.10775836392939091,-0.03363689666390419,0.042426936841011044
1686343465677852200,0.74385205078125,0.036463060000538824,-0.011344985356926917,0.051453123861551285
1686343465687871200,0.753871337890625,-0.02835515686869621,0.01897182697355747,-0.003310147461295128
1686343465697890300,0.763890380859375,0.02085928468797356,0.02806640305519104,-0.01932367261853069
1686343465707909000,0.7739091796875,0.05763846143297851,0.03304711407721042,0.03533226587232202
1686343465717929200,0.78392919921875,0.11989888357818126,0.019259996265172958,-0.01865121671706438
1686343465727948300,0.7939482421875,0.15689502754211423,-0.0022258593559265137,0.019198621466755866
1686343465737967400,0.80396728515625,0.07001461646854877,0.005604980400204658,0.051125207081437106
1686343465747986400,0.813986328125,0.027821524916030464,-0.032609307181835176,-0.025516097517870366
1686343465758005200,0.824005126953125,0.016138101384975016,-0.021850012758374213,-0.04091474217977375
1686343465768025000,0.834025146484375,-0.0020487492233514783,-0.04090133470892906,-0.033649171623587604
1686343465778044200,0.844044189453125,-0.023328268617391585,-0.01744505579769611,0.02495850016772747
1686343465788063200,0.854063232421875,-0.023951368951797485,-0.003226560831069946,-0.0028042437657713887
1686343465798082000,0.86408203125,0.026110629344917834,-0.0411696302562952,-0.07315813865866512
1686343465808102100,0.87410205078125,-0.14835629524495453,0.01696107167303562,-0.05151124725695699
1686343465818121200,0.884121337890625,-0.23523031311035156,-0.0337497093886137,0.03281359758228063
1686343465828140300,0.894140380859375,-0.08881744355075061,-0.010540098714828491,-0.0583033916151151
1686343465838159400,0.904159423828125,-0.23516828072480855,-0.005132686713337898,-0.059058557363972065
1686343465848179200,0.91417919921875,-0.3951578402161598,-0.01734919420778751,-0.034384792421758174
1686343465858198300,0.9241982421875,-0.27207802504692224,-0.009196282890439033,0.001665558592043817
1686343465868217300,0.93421728515625,0.01710957676563412,-0.04865852470695972,-0.09570519377049058
1686343465878236400,0.944236328125,0.46903738848455245,0.02418810031712055,-0.007981573338434099
1686343465888255200,0.954255126953125,0.674793185307458,0.0508206711769104,0.14688019481040537
1686343465898275000,0.964275146484375,0.5677969648569822,-0.04520283129513263,0.09498568385690451
1686343465908294100,0.974294189453125,0.5188321872124448,-0.035167759492993354,0.09692370271477847
1686343465918313200,0.984313232421875,0.6356991192162037,-0.04414367763102054,0.27564240299761295
1686343465928332000,0.99433203125,0.714994774249196,-0.06663491090238094,0.2605854479128495
1686343465938352000,1.00435205078125,0.6446750373542308,-0.07589724476635455,0.013866905049979686
1686343465948371200,1.01437109375,0.2787514749288559,0.006353168419003487,-0.03508037347048521
1686343465958390300,1.024390380859375,-0.46415831120610235,0.1267243456840515,-0.0851502262800932
1686343465968409300,1.034409423828125,-0.9821837486129253,0.09050327774584292,-0.1380178565820679
1686343465978428200,1.04442822265625,-1.0433078602045773,0.09153554340302944,-0.1365340477650985
1686343465988448300,1.0544482421875,-0.8405990298621356,0.07754968814849852,-0.2246784508924931
1686343465998467300,1.06446728515625,-0.5523148066300898,-0.015289923590421675,-0.1400593723470345
1686343466008486100,1.074486083984375,-0.11240538601763546,-0.07972820123136043,0.038342845865152776
1686343466018505200,1.084505126953125,0.1499743249008432,-0.1707569641560316,0.07997139887008815
1686343466028525000,1.094525146484375,0.06951134312152862,-0.2375584637969732,0.03501373797506094
1686343466038544100,1.104544189453125,-0.11820724069681018,-0.2235334455758333,-0.059449931301735336
1686343466048563200,1.114563232421875,-0.22369298351909964,-0.20023089592158794,-0.07169274228122086
1686343466058582300,1.124582275390625,-0.2872375637233257,-0.1543044265270233,-0.07679419360607861
1686343466068601000,1.13460107421875,-0.2756523398697376,-0.10094108512997627,-0.04754501050710678
1686343466078621200,1.14462109375,-0.20945227672066538,-0.046179567372798914,0.004184921001829206
1686343466088640300,1.15464013671875,-0.09775949595179408,-0.002745499315857887,0.03900138283912092
1686343466098659300,1.164659423828125,0.012385470853187143,0.05624211170375347,0.047660197851993144
1686343466108678100,1.17467822265625,0.07281506084203719,0.08644143513441085,0.05783318028748035
1686343466118698200,1.1846982421875,0.13449381064176558,0.08049100229740143,0.023427929599583147
1686343466128717300,1.19471728515625,0.209395651162602,0.07179448562264441,-0.018583667906187474
1686343466138736000,1.204736083984375,0.18399927103426306,0.07444061621725559,0.03564381603952497
1686343466148755200,1.214755126953125,0.19127897971365598,0.057903907436132426,-0.002541756904684007
1686343466158774000,1.22477392578125,0.2786743180394172,0.01224631811082363,-0.021937398780882356
1686343466168794000,1.234794189453125,0.34936230372488497,0.01642915675342083,0.0353226577937603
1686343466178813200,1.244813232421875,0.33964696539640427,0.009854454538226127,0.04923194068074226
1686343466188832300,1.254832275390625,0.29956224429998546,-0.0006873977422714233,0.03149699855837971
1686343466198851000,1.26485107421875,0.18563359423782674,-0.006306991189718246,0.011610321762226521
1686343466208871200,1.27487109375,0.023669044879078862,0.011792144602537155,0.010103753124177455
1686343466218890200,1.28489013671875,-0.09949852163884788,0.008618775263428687,-0.0077668711418285965
1686343466228909300,1.294909423828125,-0.11117781698405742,0.0009948562562465666,-0.011247954723238944
1686343466238928400,1.304928466796875,-0.07782678805682808,-0.004110942450165749,0.037665677255950866
1686343466248948200,1.3149482421875,-0.09235913474559783,-0.01745557719171047,0.040707273441553116
1686343466258967000,1.324967041015625,-0.12684417267143724,-0.010877367845177649,0.013394319102168083
1686343466268986000,1.334986083984375,-0.1702033853938803,-0.029681437036395072,-0.04001574751343578
1686343466279005200,1.345005126953125,-0.18188973153438417,-0.05999123510420322,-0.08736231283899396
1686343466289024000,1.35502392578125,-0.17777235934343188,-0.04195230506658554,-0.06970039942022413
1686343466299044000,1.365044189453125,-0.15334464158415795,-0.07254092007577419,-0.07865706486850976
1686343466309063200,1.375063232421875,-0.1575111136138439,-0.05609773479700088,-0.044855917553603644
1686343466319082200,1.385082275390625,-0.14879063154160976,-0.03002572042942047,-0.021404607078433037
1686343466329101300,1.395101318359375,-0.15519523788690567,-0.03276712809205055,-0.056554538653790946
1686343466339121200,1.40512109375,-0.1982715420147404,0.00874678555727005,-0.10627948701586573
1686343466349140200,1.41514013671875,-0.1648655314972624,0.005281739795207977,-0.07810553193297237
1686343466359159300,1.4251591796875,0.003895911459997296,-0.012771218767762183,-0.025210356036946175
1686343466369178400,1.435178466796875,0.14599365776684134,-0.03080956428349018,0.06529310437198728
1686343466379198200,1.4451982421875,0.22610062918271867,-0.02352934414744377,0.11266100474651902
1686343466389217000,1.455217041015625,0.14720949983000756,-0.02089548851251602,0.09490794244557618
1686343466399236000,1.465236083984375,0.046835948922298844,-0.015077157622575759,0.04125931783374399
1686343466409255200,1.475255126953125,0.07827975598871707,-0.025441899770498273,0.002248071187734604
1686343466419274000,1.48527392578125,0.1661778196722269,-0.028426468539237974,0.01116144548356533
1686343466429294000,1.495294189453125,0.1808387611767277,-0.037331075006723405,0.05295209371503442
1686343466439313200,1.505313232421875,0.13864161450359969,-0.026548399707674978,0.0824898114318028
1686343466449332200,1.515332275390625,0.12279577406346798,-0.03197451640963554,0.07112228544950484
1686343466459351300,1.525351318359375,0.04564768898580223,-0.03726970020830631,0.052759566817618904
1686343466469371400,1.535371337890625,-0.07359422852098942,-0.027567221361398695,0.013436112417280674
1686343466479390200,1.54539013671875,-0.1509235519170761,-0.04774140986204147,-0.036437048776447774
1686343466489409300,1.5554091796875,-0.18409575367867945,-0.026809096470475195,-0.05196954895108938
1686343466499428900,1.565428955078125,-0.15638649349808692,-0.038428807115554804,-0.06331833370029925
1686343466509448700,1.57544873046875,-0.09735741795692593,-0.039109775117039676,-0.024310594185627997
1686343466519467800,1.5854677734375,0.00486435463335365,-0.025166005438566206,-0.014277568210102617
1686343466529486800,1.59548681640625,0.043989984906651076,-0.03206862443387508,-0.03678860216047614
1686343466539505700,1.605505615234375,0.02367025045547634,-0.006095978787541389,-0.005599975431524217
1686343466549524700,1.615524658203125,0.03321425080504268,-0.007075052952766418,-0.004862674132920801
1686343466559544800,1.625544921875,0.008644494226574897,0.0013707038313150405,-0.00793985308855772
1686343466569564000,1.63556396484375,0.004548785878159106,0.009987141007184982,-0.014753880484960973
1686343466579583000,1.6455830078125,0.00406363270971924,0.00037000235617160797,0.004084090975858271
1686343466589601800,1.655601806640625,0.035643596843816336,0.007514028891921043,-0.002903868215344846
1686343466599622000,1.665621826171875,0.06998831298351288,-0.005842880809307098,-0.018814298324286938
1686343466609641000,1.675640869140625,0.05607260035574436,-0.01907294926047325,-0.008107903131842613
1686343466619659800,1.68565966796875,0.020527860776521266,-0.010911270114779471,-0.0041398397510871284
1686343466629678800,1.695678955078125,-0.001578209102153778,0.003833294552564621,0.008704992242157459
1686343466639698700,1.70569873046875,-0.001294131463766098,0.02381342178583145,-0.0070984338283538815
1686343466649717800,1.7157177734375,-0.0025280206402763725,0.02254033311009407,0.0031459333429113027
1686343466659736800,1.72573681640625,0.017450353027321397,0.004665653723478317,0.003890906491316855
1686343466669756000,1.735755859375,0.03246617238409817,-0.0034469255834817885,0.016744579378142953
1686343466679775700,1.745775634765625,0.04861004592273384,-0.0173977095246315,0.022674517416395246
1686343466689794800,1.755794921875,0.09529639377389103,-0.023774843341112135,0.04935209646169096
1686343466699814000,1.76581396484375,0.0707405561229214,-0.03304711407721042,0.04786967588420957
1686343466709833000,1.7758330078125,0.04149462442696094,-0.038298458734154696,0.050046179673075675
1686343466719851800,1.785851806640625,-0.0065916168173775075,-0.05613455967605114,0.06865359378103167
1686343466729872000,1.795871826171875,-0.06205748345162719,-0.07590951972603797,0.011997056057490407
1686343466739890700,1.805890625,-0.10629760719444602,-0.07709960629343986,-0.005934614213369787
1686343466749909800,1.81590966796875,-0.08446454557087271,-0.05044540812373161,0.022383133254386484
1686343466759928800,1.8259287109375,-0.028447474794648587,-0.037860651838779444,0.038633426309563214
1686343466769948700,1.83594873046875,-0.02155599824786186,-0.04246726885139942,0.006678747111558914
1686343466779967700,1.8459677734375,-0.03620934096779674,-0.024629414343833922,-0.00970945657696575
1686343466789986800,1.85598681640625,-0.04359714966416359,-0.0015261866539716719,-0.015518179388344287
1686343466800006000,1.866005859375,0.0058019642770290375,-0.010598550903797148,-0.015143208596110343
1686343466810026000,1.87602587890625,0.07410217804312706,-0.017782909449934957,0.004459609757363796
1686343466820044800,1.886044921875,0.07145370936095714,-0.01106909102499485,0.00967354501336813
1686343466830063900,1.89606396484375,0.033961854301951824,-0.00883738645017147,-0.005279438240267336
1686343466840083000,1.9060830078125,0.04102408430576324,-0.0019616554617881772,0.0010860416710376738
1686343466850102800,1.916102783203125,0.05180854970309883,-0.0031850597769021985,0.002917677544988692
1686343466860121600,1.92612158203125,0.0512345126748085,-0.012207155144214629,0.001829261253774166
1686343466870140700,1.936140625,0.012758943808078765,-0.010465279912948608,0.02609744106978178
1686343466880159700,1.94615966796875,0.007698153287172317,-0.017531565037369728,0.004185176730155945
1686343466890178800,1.9561787109375,0.013078129292465745,-0.0013929156631231306,-0.008730966933630407
1686343466900199000,1.966198974609375,0.0033703897485509514,0.03212766114473343,-0.00507828964497894
1686343466910217700,1.9762177734375,-0.03065112231876701,0.026171383088827133,-0.003215710643492639
1686343466920236800,1.98623681640625,-0.006408661465905606,0.03115677028596401,-0.021425613333843647
1686343466930256000,1.996255859375,0.05310848985314369,0.0169967275083065,-0.0190577516913414
1686343466940276000,2.00627587890625,0.09570548603143543,0.010004092141985893,0.02255958579983562
1686343466950294800,2.016294677734375,0.150683349953033,-0.0004939209967851639,0.04011372799519449
1686343466960313900,2.02631396484375,0.1392424664735794,-0.02615267838835716,0.03693184655606747
1686343466970333000,2.0363330078125,0.10164079436454922,-0.050212183889746666,0.05326605503503233
1686343466980352800,2.046352783203125,0.04919043962657451,-0.04797463409602642,0.06104688163697719
1686343466990371800,2.056371826171875,0.009479739474318922,-0.043021980124711985,0.0412958504518494
1686343467000390700,2.066390625,-0.1178279225230217,-0.02076689369678497,0.02408405542075634
1686343467010409700,2.07640966796875,-0.2017916058996692,0.0021989713490009307,-0.04069737310204655
1686343467020429800,2.086429931640625,-0.1215355448693037,0.004430091401934623,-0.07460106747597456
1686343467030449000,2.096448974609375,-0.05110471228267997,0.017447393885254858,-0.04220741233881563
1686343467040467700,2.1064677734375,0.023515352154709398,0.031166122636198997,-0.022964074947498737
1686343467050486800,2.11648681640625,0.041062626217864454,0.029613632497191428,-0.0015005042234435676
1686343467060507000,2.1265068359375,-0.003353950070403516,-0.0012818565040826797,0.007247523442842066
1686343467070526000,2.13652587890625,-0.04727149079535156,-0.029336569121479986,0.002694901639781892
1686343467080545000,2.146544921875,-0.047427521607279775,-0.0687935502409935,-0.0022089082211256025
1686343467090563800,2.156563720703125,0.002951872075535357,-0.09180793060362338,-0.033021650842390955
1686343467100583000,2.1665830078125,-0.028452187502384183,-0.0963864905655384,-0.027417291496694085
1686343467110602800,2.176602783203125,-0.05162555781900882,-0.09688625678122043,-0.032305355799198146
1686343467120621800,2.186621826171875,0.00247366010453552,-0.1012970589607954,-0.04607585126999765
1686343467130640600,2.196640625,0.054420156973600385,-0.08692658830285072,-0.00286737212985754
1686343467140659700,2.20665966796875,0.05848141506314277,-0.06202537128031253,0.009708616326749324
1686343467150679800,2.2166796875,-0.021983831738494334,-0.03699672848582267,-0.006854067145846784
1686343467160699000,2.226698974609375,-0.14095979178547857,-0.013396657189726829,-0.023515607883036135
1686343467170717700,2.2367177734375,-0.2821609545787796,0.01947860745191574,-0.04637329984661191
1686343467180736800,2.24673681640625,-0.31658465423882004,0.026420389413833616,-0.014496142864227294
1686343467190756900,2.2567568359375,-0.13552845091912893,0.0020773907959461212,-0.006208828044869006
1686343467200776000,2.26677587890625,0.08166238416433334,0.002041150438785553,0.03424275360256433
1686343467210795000,2.276794921875,0.25405018265889956,0.005938742399215698,0.054947998506296426
1686343467220813800,2.286813720703125,0.3292488689681515,-0.0038853170007467266,0.03748476773109287
1686343467230833700,2.296833740234375,0.26933774989545345,0.00402677129805088,0.045920916436612606
1686343467240852700,2.306852783203125,0.16388474029898642,0.009210895937681197,0.0250181214004755
1686343467250871800,2.316871826171875,0.09609368163142352,-0.001786298894882202,0.0039519890287891025
1686343467260890600,2.326890625,-0.004926350486278533,-0.02174655238389969,0.037839316789805885
1686343467270910700,2.33691064453125,-0.05395133388545364,-0.0435877973139286,0.01953563486877829
1686343467280929800,2.3469296875,-0.058204315154813224,-0.03901975874602794,0.019307086809910834
1686343467290948900,2.356948974609375,-0.07277765144109725,-0.03887888897061348,0.024095161336660384
1686343467300968000,2.366968017578125,-0.08214812185466289,-0.021230419555306433,0.03586363280266523
1686343467310988000,2.376988037109375,-0.07013736606538296,0.0062765960514545435,0.07432604992687701
1686343467321006800,2.3870068359375,-0.05044069541599601,0.0025298107385635375,0.05120970702711492
1686343467331026000,2.39702587890625,-0.13024199841618536,0.00032733225822448726,-0.013148819908499717
1686343467341045000,2.407044921875,-0.1035100588351488,0.008605915781855582,-0.031740707653760906
1686343467351064800,2.41706494140625,0.03311031550653279,-0.041186581391096114,-0.027906170992180703
1686343467361083600,2.427083740234375,0.12802782949805258,-0.06244856512844562,0.006548983252048492
1686343467371102700,2.437102783203125,0.19599661935269833,-0.09082593382894992,0.0020256606087088584
1686343467381121800,2.447121826171875,0.16956512402296064,-0.08216565751135349,0.028193244305253027
1686343467391140900,2.457140869140625,0.053226599807478486,-0.05749065046012401,0.03217036777529865
1686343467401160700,2.46716064453125,-0.1224678572833538,-0.02031739636361599,-0.02169277637004852
1686343467411179800,2.4771796875,-0.2095300181319937,-0.0035842882275581357,-0.0500706930598244
1686343467421198800,2.48719873046875,-0.17925068826768548,0.004362871384620666,-0.01733987839017063
1686343467431218000,2.497218017578125,-0.10010993153546005,0.012342764222621917,-0.04068217553291469
1686343467441238000,2.507238037109375,-0.05644961697459221,0.01585223364830017,-0.05309183097928762
1686343467451256800,2.5172568359375,0.0016564985027536748,0.00857727420926094,-0.04313804425243288
1686343467461276000,2.52727587890625,0.048887072765827176,0.009228431594371795,-0.03490764725208282
1686343467471295000,2.537294921875,0.07309150316324084,-0.027397710013389587,-0.00451283778194338
1686343467481314800,2.547314697265625,0.10828268006443977,-0.05795476084053516,0.037222938457131385
1686343467491333600,2.557333740234375,0.14891692480240015,-0.06750292590856552,0.05342796759847551
1686343467501352200,2.567352294921875,0.11797054586410521,-0.07708148611485957,0.025798750384151935
1686343467511371000,2.57737109375,-0.004261712565086782,-0.051474751171469685,0.026932759382762014
1686343467521391000,2.58739111328125,-0.10877247287537901,-0.0036328035444021223,0.006726714439131319
1686343467531410200,2.59741015625,-0.15784604465663432,0.012725041538476943,0.0057262686923146245
1686343467541429200,2.60742919921875,-0.14222056896891444,0.03585340366959572,-0.023846995261870323
1686343467551448300,2.6174482421875,-0.019713512186333534,0.024251228681206702,-0.04497654825858772
1686343467561468400,2.627468505859375,0.06369184318780899,-0.00011807342171669006,0.002229366487264633
1686343467571487200,2.6374873046875,0.13201543782949446,-0.011670564049482345,0.036086627903580665
1686343467581506300,2.64750634765625,0.09821958774421363,-0.04792904138863086,0.007149616026319563
1686343467591525400,2.657525390625,-0.03644201721251011,-0.04975216516256332,-0.002835515686869621
1686343467601545200,2.667545166015625,-0.052496495434641834,-0.03972060049176216,0.005416764351725578
1686343467611564000,2.67756396484375,-0.021516250759363174,-0.04195756576359272,0.01433861421495676
1686343467621583000,2.6875830078125,0.05663494694624096,-0.026297639816999435,0.021081695266999302
1686343467631602200,2.697602294921875,0.13033438940737396,0.00528816953599453,0.047016054729558526
1686343467641622300,2.707622314453125,0.0845224497705698,0.02847030768096447,0.02055909616500139
1686343467651641300,2.717641357421875,-0.047983913381025194,0.033190321940183634,-0.038321474283561106
1686343467661660200,2.72766015625,-0.1814922931820154,0.039970775860548015,-0.0023407179072499275
1686343467671679200,2.73767919921875,-0.15163199244737624,0.004150689938664436,0.010050269371271132
1686343467681699300,2.74769921875,-0.011522095489501952,-0.0431131655395031,0.012993337085843085
1686343467691718400,2.757718505859375,0.09374160207994282,-0.07804886984229087,0.0539078966025263
1686343467701737200,2.7677373046875,0.07228668958637863,-0.10002864646017551,0.01921180974189192
1686343467711756300,2.77775634765625,-0.02263674268927425,-0.10011398665606976,-0.033045031717978415
1686343467721776000,2.787776123046875,-0.1525181276321411,-0.0638917496740818,-0.048257542690634724
1686343467731795200,2.797795166015625,-0.20115853216052054,-0.031055647999048232,-0.06459229915887117
1686343467741814000,2.80781396484375,-0.13592000751998276,0.0058253451526165,-0.069163516064547
1686343467751833000,2.8178330078125,-0.015584522622823714,0.022185528323054312,0.003602700667083263
1686343467761852200,2.82785205078125,0.09434650917053222,0.026502807000279426,0.06179331609010696
1686343467771872300,2.837872314453125,0.11858484183754771,-0.007650222492218017,0.06867105637248605
1686343467781891300,2.847891357421875,0.0777513482004404,-0.05020107797384262,0.07146335397213698
1686343467791910100,2.85791015625,0.004673289040662348,-0.0891623845309019,0.05609134158883244
1686343467801929200,2.86792919921875,-0.04962064773738384,-0.11796177803575991,0.059301791535317894
1686343467811949300,2.87794921875,-0.059960803433321413,-0.14811024806201456,0.05194795817378908
1686343467821968400,2.887968505859375,-0.056580549877882,-0.1314174719363451,0.04600684115439653
1686343467831987200,2.8979873046875,-0.06307751068174838,-0.0851975725531578,0.06734101334512234
1686343467842006300,2.90800634765625,-0.03648698886539787,-0.009164718708395957,0.05995035510454327
1686343467852026000,2.918026123046875,-0.020551789641380307,0.06150923845171928,-0.00973930372595787
1686343467862045200,2.928045166015625,-0.0032703634401783344,0.15704291158020495,-0.017020656373165546
1686343467872064300,2.938064208984375,0.0831021346438676,0.19904840813875196,-0.06913688378594815
1686343467882083000,2.9480830078125,0.1729875362196937,0.231340904456377,-0.09999909157212823
1686343467892103200,2.958103271484375,0.2843359605303034,0.24463176318407057,-0.13677348254416138
1686343467902122200,2.968122314453125,0.4268599694252014,0.21568857729434965,-0.1512260419949889
1686343467912141300,2.978141357421875,0.51209319781363,0.17020809810161588,-0.0907291954562068
1686343467922160000,2.98816015625,0.5490712581316008,0.1344932261198759,-0.021108217947743833
1686343467932180200,2.99818017578125,0.47734687860310077,0.07187514964342116,0.0033770752176642414
1686343467942199300,3.00819921875,0.32852413489017634,0.009772036951780319,0.02531684861872345
1686343467952218400,3.01821826171875,0.14688804932329802,-0.046830140236020085,0.04465517081711441
1686343467962237400,3.028237548828125,-0.08898644344210624,-0.07990940301716327,0.07613777552396059
1686343467972257000,3.038257080078125,-0.2549567943761125,-0.1274696110934019,0.08403433746006339
1686343467982276000,3.048276123046875,-0.3849754688978195,-0.15882219621241092,0.11146394044905901
1686343467992295200,3.058295166015625,-0.4602782549023628,-0.20914543926119802,0.1297945469096303
1686343468002314200,3.068314208984375,-0.4961012999663129,-0.25837737994194027,0.12214662597235292
1686343468012334300,3.078334228515625,-0.5355412568857894,-0.3009697364777326,0.09823332400862127
1686343468022353200,3.088353271484375,-0.5416121012320742,-0.34274434688985345,0.007220635435916483
1686343468032372200,3.098372314453125,-0.5494581020247191,-0.34284371561110016,-0.03871602655909955
1686343468042391300,3.108391357421875,-0.5122861265698447,-0.32117373559474943,-0.09826167332027107
1686343468052411400,3.118411376953125,-0.4501999284803867,-0.28251170424520966,-0.1113268700659275
1686343468062430200,3.12843017578125,-0.4000999727934599,-0.22137071458399293,-0.10138649080991745
1686343468072449300,3.13844921875,-0.323196181333065,-0.13836743720471859,-0.06740063457787036
1686343468082468400,3.14846826171875,-0.20777769457194953,-0.030970892325043676,-0.009227883605100214
1686343468092488200,3.15848828125,-0.11435823711846023,0.04364274237155914,0.013288484107516705
1686343468102507300,3.16850732421875,-0.016168459990620613,0.09700842185616493,-0.03415244497060776
1686343468112526000,3.178526123046875,0.08556699038743973,0.13900047441124916,-0.051880117101967334
1686343468122545200,3.188545166015625,0.18650456838607787,0.15269816037416456,-0.06436258205622435
1686343468132565200,3.198565185546875,0.32742048449721184,0.1746136395841837,-0.0793269634867087
1686343468142584300,3.208584228515625,0.4568962112486362,0.17614508693516254,-0.09265577960461377
1686343468152603100,3.21860302734375,0.5476227398237213,0.18329963486492631,-0.06898969386760145
1686343468162622200,3.228622314453125,0.6171200909525155,0.19574527494013308,-0.03644552434384823
1686343468172642300,3.238642333984375,0.6637199295639992,0.2294850474566221,0.043228937406279144
1686343468182661400,3.248661376953125,0.5881944772521034,0.19028291788101195,0.02068100551161915
1686343468192680400,3.258680419921875,0.5443968000471592,0.14109247825443744,0.08560644561499357
1686343468202699300,3.26869921875,0.4215963863411918,0.29386896456182,0.319886070404388
1686343468212719000,3.278718994140625,0.3974047788927331,0.08313479480445385,0.19144819880072025
1686343468222738200,3.28873828125,0.34648240090701726,0.1037415295034647,0.3090481577867642
1686343468232757200,3.29875732421875,0.4317395946929231,0.04867781392931938,0.39682434865627436
1686343468242776000,3.308776123046875,0.5296727301785722,0.005848141506314277,0.48063543528709557
1686343468252796200,3.318796142578125,0.6418085420072078,-0.045316813063621515,0.5320038034746423
1686343468262815200,3.328815185546875,0.6263198809742927,-0.08831833492219447,0.46641986292991783
1686343468272834300,3.338834228515625,0.4885129637291655,-0.07040858422219753,0.5194016941960901
1686343468282853400,3.348853271484375,0.42469723843336105,-0.05416296734213829,0.3819111128911376
1686343468292873200,3.358873291015625,0.42446923836376516,-0.0765057320535183,0.23741226025931536
1686343468302892300,3.368892333984375,0.24133798233568668,-0.02454290510416031,0.3063642889976501
1686343468312911400,3.378911376953125,0.05596325822975486,-0.0705757574826479,0.34438794937841594
1686343468322930400,3.388930419921875,-0.06200429195966571,-0.019334230545163155,0.3306822262395173
1686343468332950300,3.3989501953125,-0.18546879559755325,-0.04686930320262909,0.14704758726656436
1686343468342969000,3.408968994140625,-0.26567685276772823,-0.19338088389635086,-0.26215156471841033
1686343468352988200,3.41898828125,-0.39991405829992144,-0.16079904924333094,-0.5722255218889564
1686343468363008300,3.42900830078125,-0.5117770080039278,-0.15109773944020272,-0.6740666245985776
1686343468373027300,3.43902734375,-0.24180384628176688,-0.16833119831383228,-0.6303463600113988
1686343468383046100,3.449046142578125,0.143525258359313,-0.11975918284654617,-0.46198710464686155
1686343468393065200,3.459065185546875,0.23132742392029612,0.05665770676732063,-0.09373495314344764
1686343468403084300,3.469084228515625,-0.050088228716515,0.24462767153084278,0.45200822001136837
1686343468413104400,3.4791044921875,-0.5670142900466919,0.35254385637044905,0.8069368526265025
1686343468423123500,3.48912353515625,-1.0778192016154526,0.2845505165964365,0.6580418839275837
1686343468433142300,3.499142333984375,-1.6425345670700073,0.2387877133309841,0.3075118515975773
1686343468443161300,3.509161376953125,-2.137794703504443,0.22312778738439082,-0.00942680371068418
1686343468453181200,3.51918115234375,-1.956792239665985,0.19375147077441215,-0.02650682558827102
1686343468463200300,3.5292001953125,-0.8758312328934669,0.1023380924463272,0.16641221294999123
1686343468473219000,3.539218994140625,-0.4910650228321552,-0.08002455382943154,-0.28461386415623124
1686343468483239200,3.5492392578125,-0.32915421295464037,-0.019566870257258413,-0.6687852501295507
1686343468493258500,3.559258544921875,-0.19504267962872981,0.043591304445266724,-0.6264319630466402
1686343468503277600,3.569277587890625,-0.07515782457590103,0.05499532651305198,-0.3969185662783682
1686343468513296600,3.579296630859375,0.108054716527462,0.0980120459407568,-0.06932663420438766
1686343468523316500,3.58931640625,0.38095863447189326,0.14418869070410728,0.2579196993023157
1686343468533335600,3.59933544921875,0.6345020183861255,0.1627753177523613,0.4442427736416459
1686343468543354600,3.609354736328125,0.7537316244006157,0.14024141438305376,0.5247326799605041
1686343468553373700,3.619373779296875,0.7379062787592411,0.1099415531873703,0.48671325736343857
1686343468563393500,3.6293935546875,0.553020836007595,0.09099310708940028,0.3839743290312588
1686343468573412400,3.639412353515625,0.12590017895274794,0.16332710641622541,0.3795052207931876
1686343468583431400,3.649431396484375,-0.3015431524515152,0.1576338632106781,0.40239100634008645
1686343468593450500,3.659450439453125,-0.42496728754639623,0.009370470413565635,0.2873462847948074
1686343468603470600,3.669470703125,-0.2509095282793045,-0.15350889223515987,0.007881547030061484
1686343468613489400,3.679489501953125,-0.00937806919813156,-0.31021921086013315,-0.27421003210693595
1686343468623508500,3.689508544921875,0.15386488433228804,-0.39705636731386185,-0.47149040765985845
1686343468633527600,3.699527587890625,0.15987256378186865,-0.35214228983223433,-0.499044769539684
1686343468643547600,3.709547607421875,0.14326280803084374,-0.36933541669547554,-0.43999549146071076
1686343468653566700,3.719566650390625,0.007166238367557525,-0.31387188814878464,-0.4514366306684911
1686343468663585500,3.72958544921875,-0.26874681653128935,-0.19914894590377807,-0.48315191162005067
1686343468673604600,3.7396044921875,-0.4881494276463985,-0.1231125849276781,-0.44034868881255385
1686343468683624400,3.74962451171875,-0.5484148035168648,0.0004261164575815201,-0.2751831149227917
1686343468693643500,3.7596435546875,-0.410443087631464,0.0817073923498392,-0.06708835375830531
1686343468703662300,3.769662353515625,0.0666775262014009,0.06396539943218231,0.06210925017148256
1686343468713681400,3.779681396484375,5.1995875817000865,-0.36809856837689875,-0.5169768782019615
1686343468723701500,3.789701416015625,1.7055857742667198,-0.6403788014650345,-0.009272709127515554
1686343468733720600,3.799720458984375,0.13386018891334533,-0.12363573201894759,0.03723287532925606
1686343468743739600,3.80973974609375,-0.27026421709060666,0.11678396642804145,-0.5296867221713066
1686343468753759500,3.819759521484375,-1.3477964184582232,-0.09878536840081215,-0.35182620962038635
1686343468763778600,3.829778564453125,-1.5044529610693453,-0.1450292331814766,-0.3299076616704464
1686343468773797600,3.839797607421875,-1.4092062881886958,-0.021719664376974104,-0.31305794141739607
1686343468783816700,3.849816650390625,-1.2193442260682583,-0.037681788140535355,-0.04380597010925412
1686343468793836500,3.85983642578125,-1.057926168143749,-0.0808487296938896,-0.04026274454444646
1686343468803855400,3.86985546875,-0.8764239380896091,-0.0860123960673809,-0.20600860254019498
1686343468813874400,3.87987451171875,-0.6856652193903923,-0.10476619637608528,-0.3399903720065951
1686343468823893500,3.8898935546875,-0.5051753812491894,-0.08606091138422489,-0.33311128001734613
1686343468833913600,3.89991357421875,-0.22021862193942068,-0.0535001195192337,-0.2690674085214734
1686343468843932400,3.909932373046875,-0.02558337233411148,0.00400455946624279,-0.13209142567515372
1686343468853951500,3.919951416015625,0.05469133859779685,0.033793548530340195,0.04404313986599445
1686343468863970600,3.929970458984375,0.147903838769719,0.05044073194861412,0.20193433883860706
1686343468873990700,3.93999072265625,0.2261877594769001,0.06683540191054343,0.2772062913134694
1686343468884009500,3.950009521484375,0.23716858769655227,0.04490063347816467,0.2810663277424872
1686343468894028500,3.960028564453125,0.23742574079539625,-0.0034931028127670287,0.21475904135927557
1686343468904047600,3.970047607421875,0.2454582406034693,-0.022106033346056937,0.11150456472039222
1686343468914067500,3.9800673828125,0.195740050775744,-0.03675415190160274,0.031483079630881546
1686343468924086500,3.99008642578125,0.1257049395084381,-0.0356447293549776,-0.01279123864248395
1686343468934105300,4.000105224609375,0.09569554915931075,-0.0018798223972320556,-0.02043035521879792
1686343468944124400,4.01012451171875,0.08787347723152487,0.03758300394117832,0.01539689109623432
1686343468954144500,4.02014453125,0.10622161934878677,0.09117781600654125,0.0830953395769
1686343468964163600,4.03016357421875,0.10435469296574593,0.10647066220641135,0.1443725228384137
1686343468974182700,4.0401826171875,0.12133271577358246,0.11453063454329966,0.18835867182016372
1686343468984202500,4.050202392578125,0.17420151511933654,0.0944125601440668,0.2206374318733811
1686343468994221600,4.0602216796875,0.19882278268933296,0.0558574963003397,0.16519918389841914
1686343469004240600,4.07024072265625,0.22185769438333808,-0.008832125753164291,0.06529065668657422
1686343469014259500,4.080259521484375,0.24853520036339757,-0.06979074458479881,-0.022995383401215076
1686343469024279600,4.090279541015625,0.21555881343483924,-0.06347264747917651,-0.11686156170889735
1686343469034298400,4.10029833984375,0.11804426868744194,-0.04992752172946929,-0.13343597215190528
1686343469044317400,4.1103173828125,-0.008991152239777147,-0.061113517132401464,-0.12745339061096309
1686343469054336500,4.12033642578125,-0.11554945619702338,-0.04535480698645115,-0.1292135321512818
1686343469064356600,4.130356689453125,-0.16662380987405775,-0.037458500778675075,-0.11201163745969533
1686343469074375400,4.14037548828125,-0.18232874400615692,-0.048885903722047805,-0.07628945895433425
1686343469084394500,4.15039453125,-0.14358783873412756,-0.06788812583386898,-0.10340952107012272
1686343469094413600,4.16041357421875,-0.09870580035857855,-0.07905600105822086,-0.08168634956181049
1686343469104433700,4.17043359375,-0.09186115862820297,-0.09860650470256804,-0.02492138302773237
1686343469114452500,4.180452392578125,-0.13951134654283523,-0.12133330029547214,-0.03945595820620656
1686343469124471600,4.190471435546875,-0.14981171821765601,-0.14401976387798784,-0.1387767486579716
1686343469134490400,4.200490478515625,-0.1193617444941774,-0.17121990549266336,-0.24920623149275778
1686343469144510500,4.210510498046875,-0.07507372648902237,-0.18832301598489284,-0.33500717676654457
1686343469154529500,4.220529541015625,-0.04685651678629219,-0.16371815156042574,-0.3616124212279916
1686343469164548400,4.23054833984375,-0.06120875766780227,-0.16005319931209086,-0.36081557176187634
1686343469174568400,4.240568359375,-0.0852724278876558,-0.16852818219065666,-0.3371494494922459
1686343469184587500,4.25058740234375,-0.10635839747097342,-0.13521511065363884,-0.32084742624983187
1686343469194606600,4.260606689453125,-0.09397946595642716,-0.08828793978393078,-0.2383732873111963
1686343469204625700,4.270625732421875,-0.05655954362247139,-0.11252630898356437,-0.1526328400529921
1686343469214645500,4.2806455078125,0.00882624400164932,-0.18211071734130382,-0.1527753903288394
1686343469224664600,4.29066455078125,0.12317041606213897,-0.15392916347384453,-0.1822780367322266
1686343469234683400,4.300683349609375,0.1527144904544577,-0.12687456780970097,-0.20777984999641774
1686343469244702500,4.310702392578125,0.11709843920469283,-0.14927052401304244,-0.2393358487330377
1686343469254722600,4.32072265625,0.1557821343967691,-0.1184592061638832,-0.2855018259719014
1686343469264741400,4.330741455078125,0.19405892928838728,-0.059548752033710475,-0.2495062373526394
1686343469274760400,4.340760498046875,0.7617688003838062,0.08633680571615696,-0.390875340591371
1686343469284779500,4.350779541015625,1.1832289565920828,-0.1006610991448164,-0.21240341814383862
1686343469294799600,4.360799560546875,0.42306525331735606,-0.2543482705563307,-0.023835341356694698
1686343469304818400,4.370818359375,0.5240063384473324,0.05782324341535568,-0.2483057755216956
1686343469314837500,4.38083740234375,0.5397030892729759,0.1330120476514101,0.11487097241356968
1686343469324857600,4.390857666015625,0.3511386657476425,0.19107202243208884,0.5249103015497326
1686343469334876400,4.40087646484375,0.24592120020641012,0.14893033227324484,0.7094857285041362
1686343469344895500,4.4108955078125,0.30257655061986294,0.020095862567424773,0.49154878776110705
1686343469354914300,4.420914306640625,0.30568682812750336,-0.024158289700746533,0.23884835747703909
1686343469364934400,4.430934326171875,0.2092863090366125,-0.04757599016726017,0.07170315407738088
1686343469374953500,4.440953369140625,-0.14900865820646286,0.028641572594642638,-0.028005174387246368
1686343469384972500,4.45097265625,-0.5442436553120613,0.05891454578340053,-0.14261676521226763
1686343469394991400,4.460991455078125,-0.7715951978713274,-0.19752514409422872,-0.10436915988251566
1686343469405011500,4.471011474609375,-0.9460123650353401,0.0702139384329319,-0.3587807779986411
1686343469415030500,4.481030517578125,-1.1449187343548983,0.08290858483314514,-0.405554365741834
1686343469425049600,4.491049560546875,-1.1512332512639463,-0.04665244558155537,-0.24038641723189502
1686343469435069400,4.5010693359375,-0.9896212051372975,0.0041477673292160035,-0.20009188930969685
1686343469445088500,4.511088623046875,-0.7534509808283298,0.05648644185364246,-0.07509918972384184
1686343469455107300,4.521107421875,-0.4703636686522513,0.08152209891080855,0.06026417029406875
1686343469465126400,4.53112646484375,-0.1265535922270268,0.10043488917350768,0.0632591873915866
1686343469475146500,4.541146484375,0.14462722825184463,0.1481184313684702,0.12565079816840588
1686343469485165600,4.55116552734375,0.4055922135341912,0.18684885177910326,0.28124785832185295
1686343469495184000,4.561183837890625,0.5908570109922439,0.1393377435415983,0.31304581258818504
1686343469505202700,4.57120263671875,0.5398183131504803,0.13154489770829678,0.24290554217966273
1686343469515222800,4.581222900390625,0.47653205508887764,0.18337620723247527,0.15706366210728884
1686343469525241900,4.591241943359375,0.39129999574422836,0.12386018842458724,0.29278964489251375
1686343469535261000,4.601260986328125,0.1760164921194315,0.18103344349861145,0.32240400804206726
1686343469545281000,4.611281005859375,-0.10429726369008421,0.2153863794773817,0.23284372850107027
1686343469555299800,4.6212998046875,-0.2706078428965062,0.15270809724628925,0.1733339933034964
1686343469565319000,4.63131884765625,-0.24287578636221585,0.16157061813771723,0.12108752710716798
1686343469575338000,4.641337890625,-0.07710895864367484,0.0566676436394453,0.12659385117217897
1686343469585357800,4.65135791015625,0.22412658916339276,0.05386836830973625,0.12698210157109424
1686343469595376600,4.661376708984375,0.4770959725819528,0.05410860680639743,0.21402340229479594
1686343469605395700,4.671395751953125,0.5946781036503612,0.04594692766070366,0.20697936553480104
1686343469615414800,4.681414794921875,0.5460574998009949,0.009022095367312431,0.015960388464201242
1686343469625435000,4.691434814453125,0.3811328219950199,0.013175123393535612,-0.119807990424335
1686343469635454000,4.701453857421875,0.27358028283603486,0.027969956943392753,-0.13080472859917208
1686343469645472800,4.71147265625,0.11786080187931657,0.039349429091811175,-0.08713173721982166
1686343469655491800,4.721491943359375,-0.10361293468773364,0.0742611679971218,0.010855448274314403
1686343469665512000,4.731511962890625,-0.22134455722942947,0.07229834349155426,0.011494896955322473
1686343469675531000,4.741531005859375,-0.15723171215057372,0.08519231185615062,-0.03326075682789087
1686343469685549800,4.7515498046875,-0.15233999458625913,0.052530397704243656,0.001459386761765927
1686343469695569700,4.761569580078125,-0.140205100960657,0.029795418804883955,0.1620641190093942
1686343469705588700,4.771588623046875,0.12429609562382102,0.000962123030424118,0.2948081268417649
1686343469715607800,4.78160791015625,0.19932590990588067,0.05694061536192894,0.15696281381500884
1686343469725627000,4.791626953125,0.12503551581427455,-0.06689502314329147,-0.2735121312369592
1686343469735646700,4.801646728515625,-0.05783318028748035,0.0659440060287714,-0.06141761464551091
1686343469745665800,4.811665771484375,-0.2891464660845697,0.12240940509438514,0.2982642951776273
1686343469755684900,4.821684814453125,-0.3500853573024273,0.038406595283746715,0.13447978211641312
1686343469765704000,4.831703857421875,-0.5057721780985593,-0.05681318958997726,0.05802402668446302
1686343469775724000,4.84172412109375,-0.47012145739421246,-0.06802373491227627,-0.010490980609785764
1686343469785742800,4.851742919921875,-0.3769160080175847,-0.04302840986549854,-0.05507772583318874
1686343469795762000,4.861761962890625,-0.3462807043224573,-0.11975742928087711,-0.0703705902993679
1686343469805781800,4.87178173828125,-0.06472980793341994,-0.1122761336147785,-0.03377307199789211
1686343469815800800,4.88180078125,0.23966924540586768,-0.06682663408219813,0.03715763640226796
1686343469825819600,4.891819580078125,0.2788392262775451,-0.15709084237515925,0.08504882999854162
1686343469835838700,4.901838623046875,0.3221259948182851,-0.18420389022827147,0.08983489523129537
1686343469845858800,4.91185888671875,0.2837058824658394,-0.10412088420987128,-0.06866290959864854
1686343469855878000,4.9218779296875,-0.20445048637799917,-0.01336041683256626,-0.0892930069069378
1686343469865897000,4.93189697265625,-0.6711450380634516,0.0583452214628458,0.1275149480724707
1686343469875916800,4.941916748046875,-0.6439245112478733,0.12041501640677452,-0.031419805136322976
1686343469885935900,4.951935791015625,-0.39910613945052026,0.05233282930552959,-0.13086097056474535
1686343469895955000,4.961954833984375,-0.04522087840847671,-0.03491407699286937,-0.07654633805854245
1686343469905974000,4.97197412109375,0.27042810241542753,-0.06064356153309345,-0.06915093057760968
1686343469915993900,4.981993896484375,0.3558569995064288,-0.07231587914824486,0.05148180196676403
1686343469926012700,4.9920126953125,0.4255361004102975,-0.1443400818735361,0.1080006847852841
1686343469936031700,5.00203173828125,0.5452011752326041,-0.18340251071751115,-0.06914658319605514
1686343469946050800,5.01205078125,0.26931495354175566,0.01703472143113613,0.009039046502113342
1686343469956071000,5.02207080078125,-0.14500402567498386,0.019094576570391653,0.05837506861183792
1686343469966089700,5.03208984375,-0.30324528019428254,0.006993804410099983,-0.08388298282325267
1686343469976108800,5.04210888671875,-0.254725798631832,0.013723989447951316,-0.09738746603531763
1686343469986129000,5.05212890625,-0.1781106879197061,0.03947393225431442,-0.07031794679667801
1686343469996148000,5.06214794921875,-0.1071001922816038,-0.0067740241795778275,-0.0035413258686661717
1686343470006167000,5.0721669921875,0.13387144095972178,-0.04671265133619308,-0.014002459329459815
1686343470016185900,5.082185791015625,0.2434188802629709,-0.018618775752186775,0.004119418017566204
1686343470026205700,5.092205810546875,0.28313195503540334,-0.06505903988778591,0.07796237886892632
1686343470036224800,5.102224853515625,0.2694306888759136,-0.05813362453877925,0.03023614830970764
1686343470046243800,5.112243896484375,0.08009688841328025,0.006410451564192772,-0.09162062787059694
1686343470056264000,5.122263916015625,-0.23533435800671576,0.07785071692168712,-0.0934843393832445
1686343470066282800,5.13228271484375,-0.4367144239634275,-0.08130991746485233,0.03361117770075798
1686343470076301800,5.1423017578125,-0.33079671946465966,-0.08482932376265526,-0.12456658312827348
1686343470086321000,5.15232080078125,-0.1817710370581597,-0.10506196445226669,-0.17377919805403796
1686343470096341000,5.162341064453125,-0.11125555839538574,-0.10783961247205734,-0.040834406952559944
1686343470106359800,5.17235986328125,-0.042459085544943806,-0.04933189392387867,-0.028546003265678882
1686343470116379000,5.18237890625,-0.014644173032790421,-0.01356909114718437,0.00808770059403032
1686343470126398700,5.192398681640625,-0.045938671289011836,0.031283027014136315,0.06641544119911268
1686343470136417800,5.202417724609375,-0.03242036048099398,0.05945873566269874,0.11704294615779072
1686343470146436900,5.212436767578125,0.10566467958576976,0.05308920063078403,0.1319897371326573
1686343470156455700,5.22245556640625,0.30055070734806355,0.041242695492506025,0.18304304802166296
1686343470166475800,5.232475830078125,0.46333252790644763,0.01766249794065952,0.17122900211457162
1686343470176494800,5.242494873046875,0.48820159622505305,-0.02886719804406166,0.11184654655847698
1686343470186514000,5.252513916015625,0.4174269551694393,-0.042558454266190524,-0.015141747291386126
1686343470196532700,5.26253271484375,0.2587859607428312,-0.022366730108857154,-0.03993979620039463
1686343470206552800,5.272552734375,0.10720818270072341,-0.032389526951313016,-0.06807696293685585
1686343470216572000,5.282572021484375,-0.050095206446573136,-0.009185176974534987,-0.06012770269913598
1686343470226591000,5.292591064453125,-0.17823109942898152,0.008456278178095817,-0.06205397632028907
1686343470236610800,5.30261083984375,-0.24069442373514174,-0.01528057124018669,-0.060794075919687746
1686343470246629600,5.312629638671875,-0.2749913917429745,-0.01685118155777454,-0.046063868571259076
1686343470256648700,5.322648681640625,-0.2728337753176689,-0.02185702702105045,-0.020278233397006986
1686343470266667800,5.332667724609375,-0.3070855159442872,-0.020865677896142003,0.06758653080509976
1686343470276688000,5.34268798828125,-0.3984527170430869,-0.021266659912467,0.07638563107149675
1686343470286707000,5.35270703125,-0.47192719164192676,0.03259118700325489,0.008020517109334468
1686343470296725800,5.362725830078125,-0.5037165607430041,0.05904898581802845,-0.0018506328353658317
1686343470306745900,5.372745849609375,-0.4515700477898121,0.015288754546642302,0.005475508801639079
1686343470316765000,5.382764892578125,-0.2881575281124562,0.010128010782599449,-0.024852683439385143
1686343470326784000,5.392783935546875,-0.1513851780794561,0.00677694678902626,0.038637810223735865
1686343470336802800,5.402802734375,-0.04581942882351577,0.009324877706170081,0.07311261901650577
1686343470346822700,5.41282275390625,0.07680610323958098,0.005753448960185051,0.09613072570618242
1686343470356841700,5.422841796875,0.11988193244338034,-0.008781272348761558,0.09189560888707637
1686343470366860800,5.43286083984375,0.03131283763051033,-0.0021118775874376296,0.007509937238693237
1686343470376881000,5.442880859375,-0.19487017260603606,-0.016529109996557236,-0.10842614365573972
1686343470386900000,5.45289990234375,-0.363342313760519,-0.020393968731164933,-0.10134937366992235
1686343470396918800,5.462918701171875,-0.43841194859631355,0.002376666003465652,-0.05628744868282228
1686343470406937900,5.472937744140625,-0.36590653822533786,0.009966098219156264,-0.058285855958424504
1686343470416958000,5.4829580078125,-0.29727380456924435,-0.0032160394370555874,-0.044563364347815514
1686343470426977000,5.49297705078125,-0.17688048853762448,-0.013204934009909628,-0.003797090728022158
1686343470436995800,5.502995849609375,0.07612228569388389,-0.024845687443017957,0.0722702864408493
1686343470447015700,5.513015625,0.277013106828928,0.015173603734374045,0.13709931696504354
1686343470457034800,5.52303466796875,0.45751412395127117,-0.001183072304725647,0.1475354073161259
1686343470467053800,5.5330537109375,0.5908107606977224,-0.011996142742037773,0.09508388353437185
1686343470477072600,5.54307275390625,0.5790525183647871,-0.005937573355436325,0.007424889303743839
1686343470487092700,5.5530927734375,0.42215697936601937,-0.010790858605504034,-0.0924061522250995
1686343470497112800,5.56311279296875,0.1941279028713703,-0.020621932268142698,-0.18308467693999408
1686343470507132000,5.5731318359375,0.015698065999895334,-0.04555412895083427,-0.15314451590217648
1686343470517151700,5.58315185546875,-0.08646415842287242,-0.013234744626283644,-0.1564545537656173
1686343470527170800,5.5931708984375,-0.12056808807663619,0.015714286482334135,-0.16592190868239848
1686343470537189600,5.603189697265625,-0.18142222362048924,0.013409516671299934,-0.09515464721564203
1686343470547208700,5.613208740234375,-0.10851758479885756,0.044594928529858587,-0.14490936966147272
1686343470557228800,5.623228759765625,0.0021545476853847504,0.061976855963468545,-0.16037366343811155
1686343470567248000,5.633247802734375,0.07667180933542549,0.08282032202780246,-0.14016509774383157
1686343470577267000,5.643266845703125,0.04013626862056553,0.028724574702978133,-0.09183916599210351
1686343470587287000,5.653287109375,-0.2223100412607193,-0.0073918638169765466,-0.10535203344002365
1686343470597305900,5.663305908203125,-0.017272037318348882,0.015490414598584175,0.21653642629534006
1686343470607325000,5.673324951171875,0.03397365433759987,-0.01923895347714424,-0.16745262538101524
1686343470617344000,5.683343994140625,0.07277947807200252,-0.06475041233003138,0.1354451565498486
1686343470627363800,5.69336376953125,0.12799633838124572,-0.08363222293257713,0.08411668198127299
1686343470637382700,5.703382568359375,0.12941789561696349,-0.12145604989230632,0.12892423034850506
1686343470647401700,5.713401611328125,0.0828671568442136,-0.12253449277877806,0.13716218960080295
1686343470657421800,5.723421875,0.02763049585595727,-0.09194763133525848,0.04941730718500912
1686343470667441000,5.73344091796875,0.01885265757329762,-0.05208031584918499,-0.019533662107400596
1686343470677459700,5.743459716796875,-0.011026420927047729,-0.012173252874612808,0.002378419569134712
1686343470687478800,5.753478759765625,-0.10224573798775673,-0.003798807761073112,-0.0467336941242218
1686343470697499000,5.763498779296875,-0.123452192145586,0.014898293924331665,-0.04474851165637374
1686343470707518000,5.77351806640625,-0.13399104875139892,-0.008947276565432549,-0.07384948192369192
1686343470717537000,5.783537109375,-0.18629293492939322,-0.0010007014751434325,-0.14614548732768742
1686343470727556900,5.793556884765625,-0.17181677540726958,-0.030177111598849296,-0.11205229826364665
1686343470737575700,5.80357568359375,-0.09055997636914252,-0.03585457271337509,0.06223726046532392
1686343470747594800,5.8135947265625,-0.004106777731701731,-0.057573652568459505,0.28464612245801835
1686343470757613800,5.82361376953125,0.014547105866484344,-0.025972061124444005,0.03487337965629995
1686343470767634000,5.833634033203125,-0.07836217357516288,0.004837503159046173,-0.1500324482962489
1686343470777652700,5.84365283203125,-0.1678804954042658,-0.01856266165077686,-0.17601177941169588
1686343470787671800,5.853671875,-0.13037757096197455,-0.03245207079350948,-0.15787114256527274
1686343470797692000,5.86369189453125,0.037588301170803605,-0.04268821812570095,0.007175627250410616
1686343470807711000,5.8737109375,0.1925987936079502,-0.018023147946596145,0.05501110860407352
1686343470817730000,5.88372998046875,0.1626444213816896,-0.04697802427411079,-0.01394753253813833
1686343470827749600,5.89374951171875,0.10535605202801525,-0.026744214540719985,-0.11581387928687036
1686343470837768700,5.903768798828125,0.14149758845660834,0.008280921611189842,-0.1108346661021933
1686343470847787800,5.913787841796875,0.11193890101704745,-0.015716040048003196,-0.05410857027377933
1686343470857806800,5.923806884765625,0.13147884673476218,-0.016098901885747908,-0.00818126062899828
1686343470867827000,5.933826904296875,0.13716153201367706,-0.036621465432643885,0.0314706220081076
1686343470877845800,5.943845703125,0.09353866338636725,-0.03969371248483657,0.019468049525283276
1686343470887864800,5.95386474609375,0.018829203632473944,-0.03259703222215175,0.0040618426114320755
1686343470897885000,5.963885009765625,-0.09906005715634673,-0.0790367118358612,-0.03204754511322826
1686343470907904000,5.973904052734375,-0.14116196329407393,-0.03712941495478153,-0.06080804964611306
1686343470917922800,5.9839228515625,-0.19311547442581503,-0.056017070776224136,-0.15523290301617235
1686343470927942000,5.99394189453125,-0.2989502133488655,-0.07904255705475807,-0.2128130218580365
1686343470937961700,6.003961669921875,-0.3499655303150415,-0.0821738408178091,-0.2700368380755186
1686343470947980800,6.013980712890625,-0.216631374569796,-0.16699439675211905,-0.2585293191006407
1686343470957999900,6.023999755859375,-0.03470368564520031,-0.136814947065711,-0.20474461048636583
1686343470968019700,6.034019775390625,0.022419921600818633,-0.13627894049286843,-0.10233692340254782
1686343470978038800,6.044038818359375,-0.12001869229925796,-0.18248130421936512,0.049196905899979174
1686343470988057900,6.054057861328125,-0.2941799302071333,-0.03590308803021908,0.1534355347380042
1686343470998078000,6.064077880859375,-0.3191016420284286,-0.007509937238693237,0.21908373615797608
1686343471008097000,6.074096923828125,-0.22106150250434875,-0.002463759765028953,0.25025018758773804
1686343471018115800,6.08411572265625,-0.13734803102910517,0.004421908095479011,0.15448913544416426
1686343471028135000,6.094135009765625,-0.05588378151906654,0.0005728314518928528,0.05888389491681009
1686343471038154800,6.10415478515625,-0.01333530065761879,0.0015285247415304183,0.058695605803094804
1686343471048173800,6.114173828125,0.09208091145926155,-0.006384148079156876,0.08158555606845766
1686343471058192600,6.124192626953125,0.16432725990209726,0.0030243162572383877,0.14610044260956345
1686343471068212700,6.134212646484375,0.18768999704467132,-0.0076888009369373315,0.20727617479059843
1686343471078231800,6.144231689453125,0.1686544206525199,-0.02412204934358597,0.18232695390786974
1686343471088251000,6.1542509765625,0.11908345727575942,0.0032651392757892606,0.1262388637220487
1686343471098270000,6.16427001953125,-0.016539631390571595,0.008946692043542861,0.0983145360186696
1686343471108289800,6.174289794921875,-0.12954992449879646,0.04171557370126247,0.012250117503106594
1686343471118308900,6.184308837890625,-0.08860416612625122,0.0656476534307003,-0.08618190741539002
1686343471128328000,6.194327880859375,0.025679224790865554,0.05448386985957622,-0.14468754360433667
1686343471138347800,6.20434765625,0.18824527457356452,-0.036112346866726874,-0.04387012138664722
1686343471148366800,6.214366943359375,0.3454056750535965,0.018743863436579702,0.17194412811398505
1686343471158385700,6.2243857421875,0.3465262035161257,-0.03829436708092689,0.26453652362618596
1686343471168405800,6.23440576171875,0.22538933910820633,-0.11271627859771251,0.21119513833262024
1686343471178424800,6.2444248046875,0.05692952771233394,-0.1556166781693697,0.1742837135100737
1686343471188444000,6.25444384765625,-0.016510405296087265,-0.08192424997091292,0.1721685845196247
1686343471198462700,6.264462646484375,-0.07701134348809718,0.0060381111204624175,0.18053864571899175
1686343471208482800,6.27448291015625,-0.12285186989856883,0.012297171515226364,0.06421093515846878
1686343471218502000,6.284501953125,-0.03170212920904159,0.022968203133344647,-0.07630904043763875
1686343471228521000,6.29452099609375,0.12415482398960738,0.07137479890584945,0.028057123770192264
1686343471238540800,6.304540771484375,0.1874748747229576,0.12349836937487124,0.17803692856375128
1686343471248559900,6.314559814453125,0.1475713462791871,0.1142459723830223,0.14821348924078045
1686343471258578700,6.32457861328125,0.10454760345565155,0.057842532637715334,0.05356328441593796
1686343471268598800,6.334598876953125,0.16563302700472995,-0.006398176604509353,-0.009572751520015299
1686343471278617900,6.344617919921875,0.24924070001794024,-0.046504561543464655,-0.04118135722670704
1686343471288637000,6.354636962890625,0.23028876505494117,-0.05616086316108703,-0.058334115546941755
1686343471298655700,6.36465576171875,0.09339783014357089,-0.08067980286777018,-0.030490123070776462
1686343471308675800,6.37467578125,-0.05465630381703376,-0.05669043999314308,0.009042261372506619
1686343471318695000,6.38469482421875,-0.08126609658943489,-0.008434650868177414,-0.025564685899950562
1686343471328714000,6.3947138671875,-0.1346679981648922,0.000003507131338119507,-0.10577011272162198
1686343471338733800,6.40473388671875,-0.20378128187954425,-0.00938683702647686,-0.03483399749398231
1686343471348752600,6.414752685546875,-0.20770165192736312,-0.022930793732404708,-0.05614358323272317
1686343471358771700,6.424771728515625,-0.21353927203966303,-0.049584991902112956,-0.02800557624604553
1686343471368791800,6.434791748046875,-0.24448563271164891,-0.03444119878411293,0.0006765840873122215
1686343471378811000,6.444810791015625,-0.2158586914305575,-0.006539630901813507,-0.030574330755509433
1686343471388830000,6.454829833984375,-0.1548410176217556,-0.003464461240172386,0.034249767865240574
1686343471398848800,6.464848876953125,-0.11553835028111933,0.02148410205543041,0.0651662996545434
1686343471408868900,6.474868896484375,-0.13949438627487978,0.09218319365680218,0.017534524179436264
1686343471418888000,6.484887939453125,-0.08535831607282161,-0.034900048467516896,0.12635755819827318
1686343471428907000,6.494906982421875,-0.09551672199368476,-0.05078092368841171,0.16799422144442797
1686343471438926800,6.5049267578125,-0.06451426092002074,0.06708499275743961,-0.14651008285637945
1686343471448945700,6.514945556640625,0.03169277914209524,0.055470542809367175,-0.22497834715452045
1686343471458964700,6.52496484375,0.18501345304548739,-0.011695113968849181,-0.2077118993267417
1686343471468984800,6.53498486328125,0.20874913341999052,-0.026709143227338788,0.0001651639664545655
1686343471479004000,6.54500390625,0.23088731546998023,-0.012153963652253151,0.06150021489504724
1686343471489022700,6.555022705078125,0.27991116635799407,-0.003322422420978546,-0.032279344575107095
1686343471499040800,6.565040771484375,0.3103343616724014,-0.026059739407896992,-0.038464718679152424
1686343471509060900,6.575060791015625,0.24942250459194182,-0.012719196319580078,-0.04877305446472019
1686343471519080000,6.585079833984375,0.10849778411984443,-0.0549117398828268,0.06524700020793825
1686343471529099000,6.59509912109375,-0.003447511247015791,-0.005677461114525795,-0.007607808122597634
1686343471539119000,6.605119140625,-0.02994856353998184,-0.018399580043554305,-0.01959605981912464
1686343471549138200,6.61513818359375,-0.052988078343868254,0.0010977321088314056,0.02505085462629795
1686343471559157000,6.625156982421875,-0.002101940715312958,-0.0018377368211746215,0.015192016173899172
1686343471569176800,6.6351767578125,0.01687397562818369,-0.020371172377467155,0.0208595769489184
1686343471579196000,6.64519580078125,0.024023847382829987,-0.02124970877766609,0.012950411259569227
1686343471589215000,6.655215087890625,0.01489361546592554,-0.04007657432258129,-0.00017502777334302662
1686343471599233800,6.66523388671875,-0.011814356434345245,-0.018024316990375516,-0.0012108370944857597
1686343471609254000,6.67525390625,-0.009203886241582221,-0.04087503122389316,-0.061473838344775135
1686343471619273000,6.68527294921875,0.03968552917838097,-0.04907470429241657,-0.027655191905796527
1686343471629292000,6.6952919921875,0.15502689558267593,-0.02944353662729263,-0.0064668579265475265
1686343471639312100,6.70531201171875,0.2226794590950012,-0.04709200604259967,0.01145929591897875
1686343471649331000,6.7153310546875,0.20966332565546034,-0.026302315992116927,0.013708536150492726
1686343471659350000,6.72535009765625,0.19011691366434097,-0.015237901142239569,0.011884243332780898
1686343471669369900,6.735369873046875,0.0721206534036668,0.011236264285445212,-0.021732852652110158
1686343471679389000,6.745388916015625,-0.05197568643093109,0.03203063051104545,-0.0412222737589851
1686343471689408000,6.755407958984375,-0.13260697398185728,0.05086392579674721,-0.0394926734874025
1686343471699426800,6.7654267578125,-0.18193594529628754,0.0500929414242506,-0.02703994608428329
1686343471709447000,6.775447021484375,-0.2033691939473152,0.04034019369482994,-0.07772621375918388
1686343471719466000,6.785466064453125,-0.17198270655870437,0.018162848678231237,-0.11227638934310526
1686343471729485000,6.795485107421875,-0.12401333315968513,-0.03529460074305534,-0.08232548771556467
1686343471739505200,6.805505126953125,-0.13389526022672651,-0.023404840984940528,-0.018958930959366262
1686343471749524000,6.81552392578125,-0.057117140972614285,-0.024444120904803274,0.07100508881062269
1686343471759543000,6.82554296875,0.11274492017030716,-0.12399579750299453,0.1337862834269181
1686343471769563000,6.83556298828125,0.11038812791109084,-0.11823591880202293,0.17339761485792696
1686343471779582000,6.84558203125,-0.09416822999417782,-0.1081067389756441,0.1138274547100067
1686343471789600800,6.855600830078125,-0.18576982437074183,-0.0847837310552597,0.010034487280249594
1686343471799619800,6.865619873046875,-0.10395254190564154,-0.07297872697114945,0.034469803824089464
1686343471809640000,6.875639892578125,0.02180442005097866,-0.027940146327018738,0.0391261417299509
1686343471819659000,6.885658935546875,0.04157821562376339,0.006067337214946746,-0.0240790504520759
1686343471829678000,6.895677978515625,0.1331125854164362,0.002573065358400345,-0.07739007713999599
1686343471839698200,6.9056982421875,0.22616145599186419,0.02694529007077217,-0.04656242921054363
1686343471849717000,6.915717041015625,0.23712359777735545,0.02050736597776413,0.014303652499429881
1686343471859736000,6.925736083984375,0.2807370957881212,0.021661212188005447,0.07456307355314493
1686343471869756000,6.935755859375,0.3292582578510046,0.009603694647550582,0.12554682633727787
1686343471879775000,6.94577490234375,0.28756723406910895,0.0054810617595911024,0.02245265482664108
1686343471889793800,6.955793701171875,0.12857026581168174,0.003326514074206352,-0.06799070942550897
1686343471899812900,6.965812744140625,-0.020236147820949554,0.013310147950053215,-0.10799509529471396
1686343471909833000,6.9758330078125,-0.07081424241364002,0.043352819514274596,-0.049202130064368244
1686343471919852000,6.98585205078125,-0.10432545773810706,0.02450023500621319,0.018018508304096757
1686343471929870800,6.995870849609375,-0.07012742006010375,-0.0028705870002508163,0.03838325094077736
1686343471939891000,7.005890869140625,-0.016487608942389487,-0.008561492118239403,0.02416764205098152
1686343471949910000,7.015909912109375,0.035163667839765544,-0.0281768776923418,0.004283960929512978
1686343471959929000,7.02592919921875,0.02749766325652599,-0.038408933371305465,-0.011906710892915725
1686343471969948200,7.0359482421875,-0.04080780207342468,-0.04792436521351337,-0.041444026750884946
1686343471979968000,7.045968017578125,-0.10956745917797088,-0.050561143457889555,-0.0724728232756257
1686343471989986800,7.05598681640625,-0.13572772721773943,-0.0799737004250288,-0.036769605199061334
1686343472000006000,7.066005859375,-0.13157410553647206,-0.08406243104338645,-0.06045881608333438
1686343472010026000,7.07602587890625,-0.19893676445782182,-0.05148351899981499,-0.024247137027978895
1686343472020045000,7.086045166015625,-0.23037819690406322,-0.03356032429635525,0.025176526832580565
1686343472030063900,7.09606396484375,-0.1366933665126562,-0.051962242427468296,-0.043753801530599594
1686343472040084000,7.106083984375,-0.11646598652005195,-0.02997603606879711,0.04490180252194404
1686343472050103000,7.11610302734375,-0.1048848360533826,-0.0235498024135828,0.06112908002771437
1686343472060122000,7.1261220703125,-0.01778933919072151,-0.012632687079906463,-0.011489654524624348
1686343472070141200,7.13614111328125,0.07933658069842495,-0.019684943678975105,0.03252195769194513
1686343472080160800,7.146160888671875,0.14126430942369625,-0.018065818044543266,-0.03419164446983486
1686343472090179800,7.156179931640625,0.14786357982456683,-0.006575871258974075,-0.0341851781964302
1686343472100199000,7.166198974609375,0.11041969209313392,0.013297872990369795,-0.030253391705453395
1686343472110219000,7.176218994140625,0.03716800253265537,0.03871463831961155,-0.05033898860719055
1686343472120238000,7.186238037109375,0.03736441102074459,0.03333528336882591,-0.03436371310111135
1686343472130257000,7.1962568359375,0.08500468946271575,0.03139116356372833,0.02601009157989174
1686343472140276000,7.20627587890625,0.11848258703947066,0.03466273258030415,0.06645896981358528
1686343472150296000,7.216296142578125,0.1299666977392975,0.017295418193936346,0.05561115685645491
1686343472160315100,7.226315185546875,0.1813309651404619,-0.03826514098644256,0.04152852669656276
1686343472170334000,7.236333984375,0.19638123475611208,-0.045209261035919185,0.032035306686162945
1686343472180353800,7.246353759765625,0.1131108126069419,-0.05347615412175655,-0.04484367912653833
1686343472190372900,7.256372802734375,0.03613808409618213,-0.058311903715133666,-0.028300175278447567
1686343472200392000,7.266391845703125,-0.00829204579340294,-0.048050621941685676,-0.005720460006035864
1686343472210412000,7.276412109375,0.03200197067214176,-0.0778816965818405,-0.05668433904591948
1686343472220430800,7.286430908203125,0.034657490149606014,-0.07884615769982338,-0.005948934999667108
1686343472230450000,7.296449951171875,-0.04437164116799831,-0.026824878561496734,0.014968436551094054
1686343472240469000,7.306468994140625,-0.10373626880645752,-0.020709610551595686,-0.008387012334167956
1686343472250489000,7.316489013671875,-0.10144901638580485,-0.014278700721263885,-0.023718400446139275
1686343472260508200,7.326508056640625,-0.09526243670536205,0.002142272725701332,-0.025053448442183435
1686343472270527000,7.33652685546875,-0.06332474517477676,-0.007326981887221336,-0.02323237049486488
1686343472280546800,7.346546875,-0.04731178627312183,-0.017704583516716957,0.006448153226077556
1686343472290566000,7.35656591796875,-0.04075867483522743,-0.012228782454133034,0.055914267988875506
1686343472300585000,7.3665849609375,-0.04335866473317146,-0.004648702588677406,0.04058013993054628
1686343472310603800,7.376603759765625,-0.010142623829841614,0.0026478841602802275,0.01614624815881252
1686343472320623900,7.386623779296875,0.003203764477372169,0.009949147084355354,0.007360591895878315
1686343472330643000,7.396642822265625,0.04892623573243618,0.001073182189464569,-0.025992227129638192
1686343472340662000,7.406662109375,0.09051261182976886,0.00879120922088623,-0.0032318580606952307
1686343472350682000,7.41668212890625,0.130964467471838,0.012750175979733467,-0.0023185060754418374
1686343472360701000,7.426700927734375,0.1387725108742714,-0.014430676412582397,-0.01322100836187601
1686343472370720000,7.436719970703125,0.12466916671991347,-0.010809563305974006,0.012263853767514227
1686343472380739000,7.446739013671875,0.10358080425010993,-0.00243862532377243,0.027253369639255103
1686343472390759000,7.456759033203125,0.0708417149424553,-0.013852584263682365,-0.017393033349514007
1686343472400778000,7.466778076171875,0.05829842317905277,-0.026057401320338246,0.0450668934231624
1686343472410796800,7.476796875,-0.019819968235492706,-0.010451835909485816,0.08903115936666726
1686343472420817000,7.48681689453125,-0.08408000323269516,-0.020862170764803886,0.025784100804291665
1686343472430836000,7.4968359375,-0.11519523593187332,-0.017196633994579314,-0.03548018644303083
1686343472440855000,7.50685498046875,-0.06574114040043205,-0.04868599723577499,-0.057430992694757876
1686343472450873900,7.516873779296875,-0.05889759464859962,-0.05607318487763405,-0.029841303773224352
1686343472460894000,7.52689404296875,-0.10086042110919952,-0.04952595519125461,0.022213585373759268
1686343472470913000,7.5369130859375,-0.08469897538125515,-0.06708674632310867,0.06293605638444423
1686343472480932000,7.54693212890625,-0.029563345348369328,-0.06889876418113708,0.034964966929890214
1686343472490952000,7.556951904296875,-0.017396540480852127,-0.059789575052261346,-0.02281827326864004
1686343472500971000,7.566970947265625,-0.027113632375001907,-0.043503041639924044,0.015396306574344635
1686343472510990000,7.576989990234375,-0.003908734408952295,-0.013625205248594284,0.029136041580699382
1686343472521009200,7.587009033203125,0.06649988634586333,-0.008750292688608169,0.03488338959366083
1686343472531029200,7.597029296875,0.06091302612423896,0.003444587495923042,0.043881227302551264
1686343472541048000,7.607048095703125,0.018498400775529444,0.014297989943623543,0.030746764712966976
1686343472551067100,7.617067138671875,-0.044522484348155554,0.02760404624044895,-0.029718882969953116
1686343472561086200,7.627086181640625,-0.12012103842888026,0.02497369773685932,-0.07963763687107711
1686343472571106300,7.637106201171875,-0.18839082052409648,0.019280454531311986,-0.08543108904808759
1686343472581125000,7.647125,-0.15492460425198076,0.020533669462800025,-0.05281272177696228
1686343472591144200,7.657144287109375,-0.09169983058664948,0.014940379500389098,-0.021209705560840664
1686343472601164000,7.6671640625,-0.02623915109541267,0.005780336967110633,-0.055240204652212556
1686343472611183000,7.67718310546875,-0.012144611302018165,-0.01000292309820652,0.03043342444747686
1686343472621202200,7.6872021484375,-0.043536359387636184,-0.00816810888648033,-0.04573357717096805
1686343472631221000,7.697220947265625,-0.12000059038698672,0.015597966626286507,-0.1480307530850172
1686343472641241000,7.707240966796875,-0.22727555471360683,0.03186637986004352,-0.13811696957498787
1686343472651260200,7.71726025390625,-0.2867728688210249,0.04352349990606308,-0.12368541637957095
1686343472661279200,7.727279296875,-0.36283140509631484,-0.011564765587449073,-0.10513586993869393
1686343472671298000,7.737298095703125,-0.40300563110709187,-0.056606853362917896,-0.039552221654914316
1686343472681318100,7.747318115234375,-0.27510172024965285,-0.13911270261406897,-0.06434709222614765
1686343472691337200,7.757337158203125,-0.11777529728664085,-0.1440606804102659,-0.1284132851516828
1686343472701356300,7.767356201171875,-0.013085107022523879,-0.13262509416043758,-0.06492723020166158
1686343472711376100,7.777376220703125,-0.00502279659807682,-0.1338438223004341,0.07707184150367975
1686343472721395000,7.78739501953125,-0.057051053466461596,-0.08642740660905837,0.12838150177393107
1686343472731414000,7.7974140625,-0.10700138981593772,-0.03462181604802608,0.07505147812459617
1686343472741433000,7.80743310546875,-0.06786766756772994,-0.0071843585461378095,0.07198883915096521
1686343472751453200,7.817453125,0.10450608413517475,0.009707739543914795,0.12516601032614708
1686343472761472300,7.82747216796875,0.2538683415522799,0.07139701073765754,0.14675528978910296
1686343472771491000,7.837490966796875,0.24126608614325523,0.07529869435131549,0.10573971758335828
1686343472781510100,7.84751025390625,0.23778350472450255,0.03375964626073837,-0.04836187984794378
1686343472791530200,7.8575302734375,0.20635257540596647,-0.007442717221379279,-0.13769001286718993
1686343472801549300,7.86754931640625,0.1529816717569716,-0.009117372435331344,-0.14358425853755324
1686343472811568000,7.877568115234375,0.09858548018084838,0.05111702377498149,-0.15680848176982254
1686343472821588000,7.887587890625,-0.022907412856817244,0.044753333961963654,-0.1488160582438111
1686343472831607000,7.89760693359375,0.008191508028376848,0.04336450995206833,0.043824565211869775
1686343472841626000,7.907626220703125,0.07355623459815978,-0.033117841225862504,0.2856698760151863
1686343472851645200,7.917645263671875,0.30092998898923395,-0.018089783442020415,-0.025776502019725738
1686343472861665000,7.9276650390625,0.40204000094532966,-0.05059621477127075,0.12306644423101097
1686343472871684000,7.93768408203125,0.3785451435893774,-0.020424363869428634,0.21206253228429703
1686343472881703200,7.947703125,0.23870354217886924,-0.019527707290649413,0.2264598544165492
1686343472891722200,7.95772216796875,0.16751463950024917,-0.019589082089066505,0.10948712395075708
1686343472901742300,7.967742431640625,0.2918067896013148,-0.04252747460603714,0.03111968967858702
1686343472911761200,7.97776123046875,0.1916939719890244,-0.017819734328985214,0.18032942341510205
1686343472921780200,7.9877802734375,-0.3828752817481756,-0.006456044271588325,-0.07721092118080705
1686343472931799300,7.99779931640625,-0.6766746882051229,0.07899521078169346,-0.6556637566193938
1686343472941819100,8.007819091796875,-0.5377770896464585,0.07565817531347274,-0.4613704340532422
1686343472951838000,8.017837890625,-0.4402805920124054,-0.014292729246616363,0.16722031446248292
1686343472961857000,8.02785693359375,-0.36208266908824444,-0.03308393895626068,0.23105711907893417
1686343472971876000,8.0378759765625,-0.24440025598313658,-0.13984160141050814,0.052288770968094464
1686343472981896200,8.047896240234374,0.037228217420447615,-0.20476678578555582,-0.03764814159926027
1686343472991915300,8.057915283203124,0.18840136018441989,-0.18600772477984429,0.10740505697969346
1686343473001934000,8.06793408203125,-0.05642214444577694,-0.12262100201845168,0.18757044405192136
1686343473011953200,8.077953125,-0.3474322124451399,-0.052341012611985205,-0.0590621740931645
1686343473021973200,8.08797314453125,-0.23783549064006654,0.0011667056918144225,-0.20589162509702144
1686343473031992300,8.097992431640625,0.00804652833342552,0.0017301847934722899,-0.00042728550136089324
1686343473042011100,8.10801123046875,0.12034138491498306,0.036837738531827924,0.12582538755033165
1686343473052030200,8.1180302734375,0.19670158928427844,0.08014847247004508,0.07804485125429927
1686343473062050000,8.128050048828126,0.26859776344941927,0.06929974619746208,0.11325845918301493
1686343473072069000,8.138069091796876,0.5266191512942314,0.08570610659718512,0.17627572757750748
1686343473082088200,8.148088134765626,0.582014290779829,-0.09842354935109615,0.3256439032787457
1686343473092108000,8.15810791015625,0.5032470435351133,-0.06056932725310325,-0.0005003507375717163
1686343473102127000,8.168127197265624,0.24483751488924024,0.0003226560831069946,-0.149144559545815
1686343473112146200,8.178146240234375,0.06053252064036205,0.0056219315350055695,-0.1338841177782044
1686343473122165200,8.188165283203125,0.0018108488142490385,0.009640519526600838,-0.096349957947433
1686343473132185300,8.198185302734375,-0.032138182538747784,0.046318099060654636,-0.02051788737177849
1686343473142204200,8.2082041015625,-0.014128478595614433,0.049508419534564016,-0.017892507304251192
1686343473152223200,8.21822314453125,-0.009996493357419967,0.03984042747914791,0.011571195328235626
1686343473162242000,8.228241943359375,0.0073561897153966126,0.029860300734639165,0.025138788638077676
1686343473172262100,8.23826220703125,0.006010620325338095,0.012610475248098373,0.006738624072633683
1686343473182281000,8.248281005859376,-0.06440379084944725,-0.009649871876835822,0.019315818105638025
1686343473192300000,8.258300048828126,-0.13195347850918768,-0.04314414519965648,0.007852467066049576
1686343473202319000,8.268319091796876,-0.15962063484741373,-0.07333879245519638,-0.014326302722655235
1686343473212339200,8.278339111328124,-0.14717852016985417,-0.09842822552621364,-0.010146423222124576
1686343473222358300,8.288358154296875,-0.09110590154780074,-0.08342588670551776,0.014238112982548772
1686343473232377000,8.298377197265625,-0.026084855582844464,-0.07666998270452022,0.017121559464372695
1686343473242396200,8.308396240234375,-0.018998714980483052,-0.08143792775869368,-0.031736323739588256
1686343473252416300,8.318416259765625,-0.0640571693688631,-0.06328910760581492,-0.09855185190588235
1686343473262435000,8.32843505859375,-0.16105682339668273,-0.009319617009162902,-0.12408932100534438
1686343473272454100,8.3384541015625,-0.25641104830503464,0.034684359890222546,-0.14413199208080768
1686343473282473000,8.348472900390625,-0.3214554751455784,0.07259586513340473,-0.10162939618770032
1686343473292493000,8.3584931640625,-0.28647185831414534,0.06396949108541011,-0.022583039740659294
1686343473302512000,8.36851220703125,-0.19140404913173986,0.019712416207790375,-0.030099698981083927
1686343473312531200,8.37853125,-0.058235349613893775,-0.04449380624294281,-0.04947806092891842
1686343473322550000,8.388550048828124,0.027781138106714932,-0.06015490123331546,0.03478661468829959
1686343473332570000,8.398570068359374,0.03198912945687771,-0.09156710758507251,0.10865297468155621
1686343473342589200,8.408589111328125,0.028148254386056212,-0.08875321920812129,0.0737453639620915
1686343473352608300,8.418608154296875,0.06000467910766601,-0.0925567031443119,0.07837795566618443
1686343473362627000,8.428626953125,0.02871346878707409,-0.09155483262538909,0.06374357337504626
1686343473372647200,8.438647216796875,-0.06252632480608299,-0.04571311890482902,-0.02349430936668068
1686343473382666000,8.448666015625,-0.08132979120910168,0.00007540332376956939,-0.11055208630114793
1686343473392685000,8.45868505859375,0.004347089293599129,0.0023597148686647414,-0.042618952281773086
1686343473402704100,8.4687041015625,0.13779928192794322,0.027836101430654524,0.06677519615590571
1686343473412724000,8.478723876953126,0.1511322262316942,0.04222469226717949,0.056044543305039406
1686343473422743000,8.488742919921876,0.11054129091249779,0.023361001843214033,0.004198949527181685
1686343473432762000,8.49876220703125,0.10880584542201831,0.026615035203099248,0.021697196816839275
1686343473442781200,8.50878125,0.11284136628210543,0.018310148194432257,0.05090367328524589
1686343473452801300,8.51880126953125,0.09660979619370773,0.014316694644093513,0.06340078781936317
1686343473462820000,8.528820068359375,0.035981998485326766,-0.016143910071253775,0.032410569739341734
1686343473472839200,8.538839111328125,0.007236380994319915,-0.021114099699258804,-0.022596739472448824
1686343473482858200,8.548858154296875,0.023724556192290035,-0.02037058785557747,-0.03926763255987316
1686343473492877000,8.558876953125,0.0533715064371936,-0.022044658547639845,-0.022728877952136097
1686343473502897200,8.568897216796875,0.06273381181061267,-0.023026655322313308,0.03177928609848022
1686343473512916200,8.578916259765625,0.005319751984346657,-0.033442835396528245,0.06216861567590385
1686343473522935000,8.58893505859375,-0.041867549392580986,-0.014971943682432173,0.010488368527591227
1686343473532954000,8.5989541015625,-0.09114159391568973,-0.03598433657288551,0.011670235255919396
1686343473542974200,8.60897412109375,-0.12418167546391487,-0.0490600912451744,0.014237199667096138
1686343473552993300,8.6189931640625,-0.12360650592446326,-0.05525426971018314,-0.013817805211246013
1686343473563012000,8.62901220703125,-0.13129879572642966,-0.06322247211039066,-0.03237838450279087
1686343473573031200,8.63903125,-0.1251531325782649,-0.05708206965923309,-0.03473050058688968
1686343473583051300,8.64905126953125,-0.15168514740671962,-0.04099018203616142,-0.026849063154682516
1686343473593070300,8.6590703125,-0.13084873213768006,-0.030422610792517662,-0.04033639430254698
1686343473603089200,8.669089111328125,-0.06504501136243343,-0.029133155503869055,-0.060818625839054584
1686343473613108200,8.679108154296875,-0.000862169787287712,-0.02111819135248661,-0.01884936963766813
1686343473623128000,8.689128173828125,0.05316694204211235,-0.019850363373756407,0.021305822879076
1686343473633147100,8.699147216796876,0.078647438523639,-0.006608019962906837,0.0006888955796137452
1686343473643166200,8.709166259765626,0.08206221540318802,-0.006200023683905601,-0.012843078427575528
1686343473653185000,8.71918505859375,0.026520379189588127,0.013265724286437033,-0.01231112697534263
1686343473663205000,8.729205078125,0.028841515613533555,0.02269406236708164,-0.08509696172289549
1686343473673224200,8.73922412109375,0.04509644831120967,0.008118424525856972,-0.049453474476933476
1686343473683243300,8.7492431640625,0.11168927363753318,-0.10267945322990417,0.27647154729813334
1686343473693262000,8.759261962890625,0.08478548462092876,0.033247605085372924,0.10921528473943472
1686343473703282200,8.7692822265625,0.22443066841019316,0.006544307076930999,-0.1387766390601173
1686343473713301200,8.77930126953125,0.40479423155691474,-0.024884265887737272,-0.0553282847944647
1686343473723320300,8.7893203125,0.4482570142516866,-0.046342064458131785,0.13350808754004537
1686343473733339400,8.79933935546875,0.3711591249912977,-0.025852234137058255,0.17197192943636327
1686343473743359200,8.809359130859375,0.13839085461292416,-0.00909399155974388,0.08682086290605366
1686343473753378000,8.8193779296875,-0.11030806667851284,-0.0031365444600582122,-0.10514120370093732
1686343473763397000,8.829397216796876,-0.12581015344858168,0.029147184029221535,-0.15785627378970385
1686343473773416200,8.839416259765626,-0.11162614527344702,0.0213145907074213,-0.08303308799564837
1686343473783436300,8.849436279296874,-0.07532616688013076,0.043245267486572266,-0.10716098255813121
1686343473793455000,8.859455078125,-0.07968085495829581,0.025864509096741675,-0.07509118908047675
1686343473803474200,8.86947412109375,-0.09572541457461192,0.008960720568895339,-0.0295236526587978
1686343473813493200,8.8794931640625,-0.11814707147479056,-0.018742109870910642,0.032813013060390944
1686343473823513300,8.889513427734375,-0.22149755583405492,-0.06499532700181007,0.0615106997564435
1686343473833532200,8.8995322265625,-0.2980710924267769,-0.06721709470450878,0.03160685214102268
1686343473843551200,8.90955126953125,-0.20699732131659984,-0.09993278487026691,0.0103828623265028
1686343473853570300,8.9195703125,-0.11061083075106143,-0.09103577718734741,0.054144262641668314
1686343473863590100,8.929590087890626,-0.0194236623942852,-0.04655541494786739,-0.010181786796450614
1686343473873609200,8.939609130859376,0.013515315133333206,-0.04565583575963974,0.0034217911422252654
1686343473883628000,8.9496279296875,-0.014919921234250068,-0.007797522008419037,-0.001624094070494175
1686343473893647000,8.959647216796874,-0.06306348215639591,0.011232757154107093,-0.03175561296194791
1686343473903667200,8.969667236328124,-0.10975277088331058,0.012169745743274687,-0.04251786652747541
1686343473913686300,8.979686279296875,-0.13761163213504476,0.002042319482564926,0.007546214128471911
1686343473923705000,8.989705078125,-0.1598380952566862,0.00419803621172905,0.03909107041656971
1686343473933724200,8.99972412109375,-0.13614974288893864,-0.02370411619246006,-0.018271533217094838
1686343473943744300,9.009744140625,-0.09945289239883422,-0.01183072304725647,-0.10253595310598611
1686343473953763300,9.019763427734375,-0.01573300944911316,-0.014964929419755935,-0.0931798400113359
1686343473963782400,9.029782470703125,0.1158276886165142,-0.01251519818007946,-0.027073884886503218
1686343473973801200,9.03980126953125,0.2402338204860687,-0.07318915485143661,0.06373363650292158
1686343473983821000,9.049821044921876,0.20771918758405372,-0.02394903086423874,0.08114592254217713
1686343473993840000,9.059840087890626,0.08177229254590347,-0.03634615562260151,0.04409666015151888
1686343474003859200,9.069859130859374,-0.03130580510152504,-0.045995442977547644,0.05109894012901932
1686343474013878000,9.0798779296875,-0.09395369219435379,-0.020261866784095764,0.03658409256432205
1686343474023898000,9.089898193359375,-0.15573537264559417,-0.00027180267870426176,0.0479292971169576
1686343474033917200,9.099917236328125,-0.19652736522853373,-0.01399345403909683,0.014686404739320277
1686343474043936300,9.109936279296875,-0.09432548464881256,-0.03393734091520309,-0.05053078485224396
1686343474053955300,9.119955322265625,0.093839746958483,-0.030387539479136465,-0.05024926449712366
1686343474063975200,9.12997509765625,0.23105684508429838,-0.018989947152137754,0.006964614848233759
1686343474073994200,9.139994140625,0.23872168062375856,-0.011534370449185372,0.06311846374664455
1686343474084013300,9.150013427734375,0.12078328346358612,0.011471826606988906,0.011819945924915372
1686343474094032400,9.160032470703126,0.07678980969190598,-0.0024649288088083266,-0.01881546736806631
1686343474104052200,9.17005224609375,0.09301496830582619,0.013809914165735244,-0.0006929507002234459
1686343474114071000,9.180071044921876,0.1187181310947053,0.025102877074480057,0.024869908568821847
1686343474124090000,9.190090087890624,0.11836044023083522,0.011985036826133727,0.06434449841026216
1686343474134109200,9.200109130859374,0.04012158250808716,0.01714753415584564,0.07998480634093284
1686343474144129300,9.21012939453125,-0.07410331055428833,0.008759060516953467,-0.017969591128453612
1686343474154148000,9.220148193359375,-0.1174999692102894,-0.012895721930265426,-0.10326828596852719
1686343474164167200,9.230167236328125,-0.04648759214235469,-0.02201952410638332,-0.08110705183651298
1686343474174186200,9.240186279296875,-0.018196148159634322,-0.022638532787561415,0.009941877093352376
1686343474184206300,9.250206298828125,-0.0340133104945533,-0.014105682241916656,0.03487144342754036
1686343474194225400,9.260225341796875,-0.03000175503194332,-0.015113397979736327,-0.004621814581751823
1686343474204244200,9.270244140625,0.028773090019822117,-0.01984802528619766,0.004223755174875259
1686343474214263300,9.28026318359375,0.06501286265850066,0.0003565583527088165,0.03143032653033733
1686343474224283100,9.290283203125,0.05105387714458629,-0.021563597032427786,0.05332384963687509
1686343474234302200,9.30030224609375,0.023777747684251515,-0.06539280188679694,0.047544389452598985
1686343474244321000,9.310321044921874,0.052987475555669517,-0.0909796630859375,0.036908136886917055
1686343474254340000,9.320340087890624,-0.0022135661299340424,-0.10143149899542331,-0.03459343020375818
1686343474264360200,9.330360107421875,-0.08741755015756934,-0.0791068544626236,-0.01797485182546079
1686343474274379300,9.340379150390625,-0.13613744966294616,-0.06993745957911014,-0.0069583677705377335
1686343474284398300,9.3503984375,-0.18269931261790914,-0.04635843107104301,-0.0522451144894585
1686343474294417200,9.360417236328125,-0.19880172163499518,-0.021077859342098236,-0.05755023516025394
1686343474304437200,9.370437255859375,-0.16950548452390357,0.0024298574954271317,-0.016523520505987106
1686343474314456300,9.380456298828125,-0.0880687440752983,-0.00011222820281982422,0.023060265330970286
1686343474324475400,9.390475341796876,0.008894669595360755,-0.01510755276083946,0.009732873985171317
1686343474334494200,9.400494140625,0.07601535472068935,0.0031938276052474973,0.02067636586911976
1686343474344514000,9.41051416015625,0.06725393784986808,0.011308744999766349,-0.016763174480758605
1686343474354533000,9.420533203125,0.04174423354016617,-0.0016489362508058548,-0.07549593395646662
1686343474364552200,9.43055224609375,0.027398331067897377,0.01684475181698799,-0.03769574360065162
1686343474374571300,9.4405712890625,0.02860535050379112,0.01202887596786022,-0.0013540084248408674
1686343474384591000,9.450591064453125,0.03896424743281677,0.006055646777153015,-0.00652088966872543
1686343474394610200,9.460610107421875,-0.014444120416045187,0.041277182283997536,0.03224398100078106
1686343474404629200,9.470629150390625,0.044436541364062575,0.02157353390455246,0.008719934082962571
1686343474414648300,9.4806484375,0.10964808666612952,0.010354220753908157,0.04998798321243375
1686343474424668400,9.49066845703125,0.12543023248659446,0.02271861228644848,0.06713208330217749
1686343474434687200,9.500687255859376,0.11980594459772109,0.010789689561724661,0.04520955329686403
1686343474444706300,9.510706298828126,0.10211305151879786,-0.029271687191724776,0.004232815264165401
1686343474454725400,9.520725341796876,0.07102759290337562,-0.02820259665548801,-0.048860477019846436
1686343474464745200,9.5307451171875,0.003747972622979432,-0.01920855833888054,0.011082279300130903
1686343474474764000,9.540763916015624,-0.08811431851638481,-0.0104699560880661,0.019889855133928356
1686343474484783000,9.550783203125,-0.1563420515681617,-0.01961713913977146,-0.03077270287182182
1686343474494802200,9.56080224609375,-0.23908991114795206,-0.009818214181065559,-0.007511398543417453
1686343474504821800,9.57082177734375,-0.26426468441486356,-0.013420038065314293,-0.05120967049449682
1686343474514840800,9.5808408203125,-0.1766478122929111,-0.05009469498991966,-0.06853668940309435
1686343474524860000,9.59085986328125,-0.08573533269166946,-0.06703063222169876,-0.004819967502355575
1686343474534880000,9.6008798828125,-0.02720481778979301,-0.08864216004908085,0.03855214123427868
1686343474544899000,9.610899169921876,-0.01137828483833,-0.08767185371220111,0.03241352888140827
1686343474554918000,9.62091796875,-0.03983982469094917,-0.08296762154400349,0.011670600582100451
1686343474564937000,9.63093701171875,-0.10365909365070983,-0.06088789168298244,-0.010175905044935643
1686343474574956800,9.640956787109374,-0.1708393817424774,-0.03487432950437069,-0.016669395250082014
1686343474584976000,9.650975830078124,-0.13444412628114222,-0.014088731107115745,-0.024554887802898884
1686343474594994700,9.66099462890625,-0.038392000502813606,-0.0012549684971570967,-0.031209121527709063
1686343474605013800,9.671013671875,0.06877659910619259,0.011703297275304794,0.013339374044537543
1686343474615032800,9.68103271484375,0.16797405543923377,-0.00694295100569725,0.006569733779132366
1686343474625053000,9.691052978515625,0.22765198681056498,-0.012172083830833434,-0.00774286921173334
1686343474635072000,9.701072021484375,0.2111795571709983,-0.002481295421719551,-0.023878632509149608
1686343474645090800,9.7110908203125,0.15180912084626033,0.020231471645832062,-0.07277089290674775
1686343474655111000,9.72111083984375,0.06071838033497333,0.04057867862582207,-0.10083967058211564
1686343474665130000,9.7311298828125,0.04331952003287151,0.03864508021473884,-0.09816719996985047
1686343474675149000,9.741149169921876,0.03311318331705406,0.04794190087020397,-0.0703360669752583
1686343474685167900,9.75116796875,-0.00040390462577342983,0.05802431894540786,-0.052398880279064176
1686343474695187700,9.761187744140624,-0.04620294824838638,0.01950900259017944,-0.02223053650856018
1686343474705206800,9.771206787109374,-0.06971711309300735,-0.004339490509033203,0.07110851265247911
1686343474715225900,9.781225830078125,-0.060954527178406714,-0.01909516109228134,0.07279810970723628
1686343474725244700,9.79124462890625,0.009871387406717985,-0.05274725532531738,0.022118564034067093
1686343474735264800,9.8012646484375,0.0248415775234811,-0.07282733580172061,0.02489065909590572
1686343474745283800,9.811283935546875,0.020616105315554887,-0.054493222209811204,0.081527103879489
1686343474755303000,9.821302978515625,0.019916998869180677,-0.04961889417171478,0.05524111796766519
1686343474765322000,9.831322021484375,0.0008271167402155696,-0.044428924313187595,0.0026616569573059677
1686343474775342000,9.841342041015626,0.007726794859766959,-0.022478958311676976,0.03660919047296047
1686343474785361000,9.85136083984375,0.011248539245128631,-0.0008060556858777999,0.06479717408120632
1686343474795380000,9.8613798828125,0.04397301550554111,0.0180120420306921,0.01658263028208166
1686343474805399000,9.87139892578125,0.08290511423442512,0.029757424882054326,0.00912997618857771
1686343474815419000,9.8814189453125,0.09370589144574477,0.008530512458086014,0.05956047900412231
1686343474825437700,9.891437744140624,0.07107906736228614,0.00464110380411148,0.029930772154964504
1686343474835456800,9.901456787109375,-0.026750041493307796,0.026330957564711568,-0.13144432341065257
1686343474845475800,9.911475830078125,-0.09928922626972198,0.03215338010787964,-0.1950365421488881
1686343474855496000,9.921495849609375,-0.22402440743055194,0.0018219547301530836,-0.11704258083160966
1686343474865515000,9.931514892578125,-0.29138007035553454,-0.021696868023276326,-0.009951777432858943
1686343474875533800,9.941533935546875,-0.20452245563566684,-0.09769289698898792,0.08613514566421508
1686343474885553000,9.951552978515625,-0.053867820320464666,-0.0882306566387415,0.05873096937742084
1686343474895573000,9.961572998046876,0.12151099494993686,-0.08119535117447375,0.04171557370126247
1686343474905592000,9.971592041015626,0.2587859607428312,-0.10159984129965305,0.0587786444440484
1686343474915611000,9.98161083984375,0.2320686342090368,-0.05637070651948452,0.08232318616062402
1686343474925630000,9.9916298828125,0.08865794214010238,0.001751227581501007,0.10571838253438472
1686343474935649800,10.00164990234375,0.026852351090312,0.013816928428411483,0.03603723580390215
1686343474945668900,10.0116689453125,0.054858566657174375,0.020951018092036245,0.03152447108719498
1686343474955687700,10.021687744140625,0.07943652480840682,0.032435704180598254,0.06349485931098461
1686343474965706800,10.031706787109375,0.04393909496963024,0.027760113584995267,0.018480244064331054
1686343474975726800,10.041726806640625,0.0722445674777031,-0.013281506377458572,-0.03764233291298151
1686343474985746000,10.051745849609375,0.08684535802649333,-0.05237257679402828,0.00705696930680424
1686343474995765000,10.061764892578125,0.0027829087167978283,-0.0362111310660839,0.037206864105165
1686343475005783800,10.07178369140625,-0.12375965065956115,-0.006643675798177718,-0.02564823599755764
1686343475015804000,10.081803955078126,-0.16682603618158026,-0.0057101943403482435,-0.05754789707269519
1686343475025823000,10.091822998046876,-0.02245554090347141,0.02013970170915127,-0.017233970330283045
1686343475035842000,10.101842041015624,0.1548521783365868,0.040675709259510036,0.05797006800752133
1686343475045862000,10.11186181640625,0.3347685822376981,-0.011104162338376045,0.11801266797278076
1686343475055880700,10.121880615234375,0.3755769414335489,-0.047701662373542786,0.12416066920850426
1686343475065899800,10.131899658203125,0.26865736641585825,-0.01927344026863575,-0.18030279113650322
1686343475075918800,10.1419189453125,0.04519055633544922,-0.010562310546636582,-0.10534779565632342
1686343475085939000,10.15193896484375,-0.09426697766091674,-0.004960252755880356,0.0012970906058326363
1686343475095957800,10.161957763671875,-0.11044833366572857,0.01757423513531685,-0.010250175857543944
1686343475105976800,10.171976806640625,-0.12213526432812213,0.03747252930402756,-0.04033464073687792
1686343475115996000,10.181995849609375,-0.15750585291683672,0.04561024305224418,-0.0992623382627964
1686343475126016000,10.19201611328125,-0.17610011528227476,0.006318097105622291,-0.09558631663117557
1686343475136035000,10.20203515625,-0.09451017529964446,-0.03064531363248825,-0.017327859158813953
1686343475146054000,10.212053955078124,-0.08376728402171284,-0.07356324886083603,0.08900803421940653
1686343475156073000,10.222072998046874,-0.1722463624635711,-0.11227788718044757,0.05865731961932033
1686343475166092800,10.2320927734375,-0.26103574896361675,-0.12264262932837008,-0.008176255660317837
1686343475176111900,10.24211181640625,-0.27546352103305977,-0.10692775832414626,-0.07354918380286544
1686343475186130700,10.252130615234375,-0.17665946619808673,-0.11037819103896618,-0.056934185621142386
1686343475196149800,10.262149658203125,-0.0956154696604237,-0.10039631072878837,-0.007796024171076715
1686343475206169900,10.272169921875,-0.09762209677509963,-0.07006839248239993,-0.044867498393543065
1686343475216189000,10.28218896484375,-0.07019519719984382,-0.04750175588726997,-0.03535886161830276
1686343475226208000,10.2922080078125,-0.03308160086870193,-0.04497311419248581,0.03850362591743469
1686343475236226800,10.302226806640626,-0.039620062726736065,-0.014022680133581161,0.06875234144777059
1686343475246247000,10.312246826171876,-0.033374482868053015,0.021714403679966927,0.03251808523442596
1686343475256266000,10.322265869140624,0.04941138890087604,0.02793956180512905,-0.002549392221868038
1686343475266285000,10.33228515625,0.11212357340157031,0.041653614380955696,0.012444471031427382
1686343475276304000,10.342303955078124,0.0980377283712849,0.06031622927486896,0.015275566271506249
1686343475286323700,10.35232373046875,0.08833934117760509,0.057876434907317156,0.016854652156494558
1686343475296342800,10.3623427734375,0.12544712882246822,0.05618599760234356,0.009935666548274456
1686343475306361900,10.37236181640625,0.161035780608654,0.031737200522422786,-0.03969868092089891
1686343475316381000,10.382380859375,0.14177753790915013,0.017609890970587728,-0.10908902801126241
1686343475326400800,10.39240087890625,0.034721732758544385,0.032953590574860574,-0.1910819958368316
1686343475336419800,10.402419921875,-0.011060359729267655,0.03885550809502601,-0.13334204679075629
1686343475346439000,10.41243896484375,0.07512041517496108,0.023133622828125953,-0.02724719562679529
1686343475356459000,10.422458984375,0.21280805342197417,-0.014617723417282104,0.0923231866493821
1686343475366478000,10.43247802734375,0.19671799242980778,-0.026824294039607045,0.24483145047463475
1686343475376497000,10.442496826171874,0.07160805967245251,-0.061115270698070524,0.212467313692905
1686343475386516000,10.452515869140624,-0.07387300892975181,-0.08599544493257999,0.10146543779764323
1686343475396535800,10.462535888671875,-0.21642679190840572,-0.08490823421776295,0.0035214886570349335
1686343475406555000,10.472554931640625,-0.4081424094736576,-0.03277764948606491,-0.06542319702506065
1686343475416573700,10.48257373046875,-0.5192851551443338,-0.02437865445315838,-0.14215017061382532
1686343475426592800,10.4925927734375,-0.26929979250524194,-0.11217734941542148,-0.2315662741774693
1686343475436612900,10.50261279296875,-0.14946575432419776,-0.07674655507206916,0.030315058764815328
1686343475446632000,10.5126318359375,-0.07188333294987678,-0.037646716827154154,0.06249912627190351
1686343475456651000,10.522651123046876,-0.012820318606495856,-0.07206336569190025,-0.021563304771482942
1686343475466669800,10.532669921875,0.05770400094985961,-0.06937865665256977,0.007630641008913516
1686343475476690000,10.54268994140625,0.11188037576284258,-0.04483575154840946,0.04813241847362369
1686343475486709000,10.552708984375,0.08340422286298126,0.002230535531044006,0.05924885577168315
1686343475496728000,10.56272802734375,-0.021970387735031544,0.0024912322938442227,0.05023121738377958
1686343475506748400,10.57274853515625,-0.029615970584750174,-0.007944821524620055,0.015317688380181788
1686343475516767200,10.582767333984375,0.03592350976374,-0.001260229194164276,-0.02560092625711113
1686343475526786300,10.592786376953125,0.06061378744933754,-0.00651508098244667,-0.03200195240583271
1686343475536805400,10.602805419921875,0.02615793908536434,-0.013705284747481346,-0.08037848183363676
1686343475546825500,10.612825439453125,0.028113785860873756,-0.013240005323290824,-0.056398434776626524
1686343475556844300,10.62284423828125,0.06244918618295341,0.0038490766435861586,-0.007513700098358094
1686343475566863400,10.63286328125,0.09687635644171387,-0.0027262100934982297,0.0016150705138221382
1686343475576882400,10.64288232421875,0.08679795695450157,0.007861819416284561,0.017054850903712213
1686343475586902300,10.65290234375,0.0580488688647747,0.009138999745249747,0.004301204325258732
1686343475596921300,10.66292138671875,0.03513506279978901,0.0039472763210535045,0.02467241323534399
1686343475606940200,10.672940185546874,0.025051475680805742,-0.0009404957205057144,0.03176733993235975
1686343475616959200,10.682959228515625,0.015633658994175494,-0.0237894563883543,0.034834326287545264
1686343475626979300,10.692979248046875,-0.023336451923847198,-0.011453706428408622,0.03458557569086552
1686343475636998400,10.702998291015625,-0.021543723288178444,-0.013752046498656273,-0.03571604102551937
1686343475647017200,10.713017333984375,-0.029426000970602034,-0.019625322446227073,-0.06784662477970123
1686343475657036300,10.723036376953125,-0.06624971097707748,-0.01919979051053524,-0.08753449106812476
1686343475667056400,10.733056396484375,-0.04783665039744228,-0.027573066580295562,-0.04585804380085319
1686343475677075500,10.743075439453126,-0.043346974295377726,-0.02007248169183731,-0.020201076507568357
1686343475687094500,10.753094482421876,-0.04014905503690243,-0.04010404685139656,0.004960252755880356
1686343475697114000,10.763114013671874,-0.0386819416264072,-0.03933013986945152,0.020274105211161075
1686343475707133200,10.77313330078125,-0.06489011306166649,-0.02508300333023071,0.010905717156827449
1686343475717152300,10.78315234375,-0.085959752564691,-0.012640285864472389,0.02093410348985344
1686343475727171300,10.79317138671875,-0.060769781728647644,-0.03776654381453991,0.05599694130364805
1686343475737191400,10.80319140625,-0.029941512744687496,-0.030609657797217367,0.0856424302438274
1686343475747210200,10.813210205078125,0.018156455470062793,-0.001928337714076042,0.04246964347157627
1686343475757229300,10.823229248046875,0.03252166543100029,-0.006500467935204505,0.02488547146413475
1686343475767248400,10.833248291015625,0.045817784855701024,-0.040274142721295356,0.024366708287037908
1686343475777268500,10.8432685546875,0.08244275741968303,-0.028106150543689725,-0.021225706847570837
1686343475787287300,10.853287353515626,0.07213643092811108,-0.024474516043066975,-0.008050619986653327
1686343475797306400,10.863306396484376,0.02061612358186394,-0.026048048970103262,-0.02654631734844297
1686343475807325400,10.873325439453126,-0.020094109001755713,-0.023227146330475807,-0.06049012453705072
1686343475817345300,10.88334521484375,-0.07467500949501991,-0.024265841728448867,-0.0880295811086893
1686343475827364400,10.8933642578125,-0.09102405021693558,-0.022736147943139075,-0.018137093182466923
1686343475837383200,10.903383056640624,-0.06879121215343476,-0.0160948102325201,0.05224193615168333
1686343475847403300,10.9134033203125,-0.03875497032999992,-0.021731939336657524,0.007380173379182815
1686343475857422300,10.92342236328125,-0.02955459578633308,-0.04342705379426479,0.06634761839359998
1686343475867441400,10.93344140625,0.006418013816140592,-0.05723346082866192,0.10252685648407786
1686343475877460200,10.943460205078125,0.04259940733108669,-0.03293371683061123,0.025155520577169955
1686343475887480300,10.953480224609375,0.05638422358818352,-0.001772270369529724,-0.026602979439124465
1686343475897499400,10.96349951171875,-0.009499613218568265,0.006495791760087013,0.007093209663964807
1686343475907518500,10.9735185546875,-0.021105331870913506,0.002363222000002861,-0.07153203529417515
1686343475917537500,10.98353759765625,0.010649367775581776,-0.007115969485044479,-0.06354516472611577
1686343475927557000,10.99355712890625,0.014517770174145697,-0.004016834425926208,-0.062306818570196626
1686343475937576200,11.003576171875,0.013846154522895813,-0.02752864291667938,-0.02958031474947929
1686343475947595300,11.01359521484375,-0.002506393330357969,-0.04446282658278942,0.009718589731492101
1686343475957614300,11.0236142578125,-0.006869885769486427,-0.023265140253305432,-0.0035360651716589927
1686343475967634400,11.033634521484375,-0.05165069226026535,-0.01625087757706642,-0.029069442617893217
1686343475977653200,11.0436533203125,-0.119160595898889,-0.0003419453054666519,-0.027625637017749248
1686343475987672300,11.05367236328125,-0.10583404480330645,0.001084288105368614,-0.003960062737390399
1686343475997692400,11.0636923828125,-0.045170646058581766,-0.00199029703438282,0.04086162375304848
1686343476007711500,11.07371142578125,0.0132715695053339,-0.00661094257235527,0.043917175398766994
1686343476017730300,11.083730224609376,0.048894708083011204,-0.024602526336908338,0.034722974867559965
1686343476027749400,11.093749267578126,0.08156188293192534,-0.0350134457141161,0.04483023512307554
1686343476037769200,11.103769287109374,0.09924600818250327,-0.043536943909525866,0.05228668860886246
1686343476047788300,11.113788330078124,0.07328677000701427,-0.03471300146281719,0.027926410062611103
1686343476057807400,11.123807373046875,0.04125204784274101,-0.02842003879845142,-0.055769818016886706
1686343476067826200,11.133826171875,-0.03846972364783287,-0.012910334977507591,-0.10705343053042889
1686343476077846300,11.14384619140625,-0.08952950081024319,0.013166940087080001,-0.06740067111048847
1686343476087865300,11.153865234375,-0.07616670935750007,0.02551145787537098,-0.006022913551330566
1686343476097884400,11.163884521484375,-0.04598145098481327,0.028428222104907034,0.044792168135009705
1686343476107904500,11.173904541015625,-0.009804185655713081,0.007537994289398193,0.07245616440176963
1686343476117923300,11.18392333984375,0.0020019509395584464,-0.020415011519193647,0.08420004941578954
1686343476127942400,11.1939423828125,0.006630231794714927,-0.05949322245419025,0.06364040526151657
1686343476137961500,11.20396142578125,0.005170680636167526,-0.08216390394568443,0.03499824814498424
1686343476147981300,11.213981201171874,0.012130582776665687,-0.07929507051110267,-0.004055120609700679
1686343476158000000,11.224000244140624,0.0062216509938240044,-0.07464110722541809,-0.019537644162774086
1686343476168019200,11.234019287109374,0.005089468626119196,-0.06175298407971858,-0.038527847043238576
1686343476178038300,11.244038330078125,-0.024590799366496503,-0.04017302043437958,-0.0671416548481211
1686343476188058400,11.254058349609375,-0.06680149964094162,-0.02097089183628559,-0.071342065680027
1686343476198077400,11.264077392578125,-0.12158815183937549,-0.017137012761831282,-0.04936141227930784
1686343476208096300,11.27409619140625,-0.19566055579874664,0.019454057532548905,-0.03983841818515211
1686343476218116400,11.284116455078125,-0.19489249403569847,-0.002712181568145752,-0.02207567474041134
1686343476228135400,11.294135498046876,-0.0867050179740414,-0.008304302486777305,0.02763447791133076
1686343476238154500,11.304154541015626,-0.015395137530565262,-0.005989595803618431,0.04982318457216024
1686343476248173300,11.31417333984375,-0.0011778116077184677,-0.0337497093886137,0.014416063365340232
1686343476258193200,11.324193115234374,0.014760310225747525,-0.019636428362131118,-0.02557433051113039
1686343476268212200,11.334212158203124,0.07375259742047638,-0.024592589464783668,0.010682685523293912
1686343476278231300,11.344231201171874,0.16690671846866606,0.01167991639971733,0.062383683198690414
1686343476288250400,11.35425048828125,0.19469839623570442,-0.004749824875593185,0.025862755531072614
1686343476298270200,11.364270263671875,0.17524254860486835,0.014718845704197884,-0.011225487163104116
1686343476308289300,11.374289306640625,0.17639818491339682,0.02640460732281208,-0.051662090437114234
1686343476318308400,11.384308349609375,0.14412143415417522,0.0009697218149900435,-0.030346367218531668
1686343476328328400,11.394328369140625,0.07256726009342819,0.010406243202090262,0.0215785388732329
1686343476338347500,11.404347412109376,-0.004420154529809952,-0.009773205995559692,0.027606092067062854
1686343476348366300,11.414366455078126,-0.06499879760053008,-0.028284429720044135,-0.0050154535418376325
1686343476358385400,11.424385498046876,-0.12901450244784354,-0.023256956946849823,0.010534545756876469
1686343476368405200,11.4344052734375,-0.16015899777412412,-0.027779402807354924,0.013410393454134464
1686343476378424300,11.44442431640625,-0.14608838684558867,-0.02095510974526405,0.011604220815002918
1686343476388443100,11.454443115234374,-0.1256616483559832,-0.015163666862249374,0.006714731740392744
1686343476398462200,11.464462158203125,-0.10741524958014488,-0.03715396487414837,-0.053728959839046
1686343476408482300,11.474482421875,-0.07804649522211402,-0.04090542636215687,-0.040063386047445235
1686343476418501400,11.48450146484375,-0.02207034097816795,-0.05963526127338409,0.007633307890035212
1686343476428520400,11.4945205078125,0.01863576341960579,-0.05505085609257221,0.028170192223228512
1686343476438540300,11.504540283203125,-0.004752126430533826,-0.051527942663431164,0.039179954276420174
1686343476448559400,11.514559326171875,-0.01768408871795982,-0.047100189349055285,0.029254480328597128
1686343476458578400,11.524578369140626,-0.045280536173842846,-0.03008183453083038,0.01916212538126856
1686343476468597500,11.534597412109376,-0.04132156941499561,-0.02667991713285446,0.027627171387709676
1686343476478617300,11.544617431640624,-0.014097498935461044,-0.008014964151382446,0.021797698049247263
1686343476488636200,11.55463623046875,0.0085310969799757,-0.01075578729212284,-0.006351122592389583
1686343476498655200,11.5646552734375,0.030264241893030702,-0.016200608694553375,-0.008523753923736513
1686343476508673800,11.574673828125,0.06799045369718223,0.0033136545926332472,0.007519033860601485
1686343476518694000,11.58469384765625,0.09527823706269263,0.004395020088553428,0.02636749018281698
1686343476528713000,11.594712890625,0.09463818559348583,-0.0018839140504598615,0.023625790259242056
1686343476538732000,11.60473193359375,0.052339259046316144,0.0030628947019577025,0.02551525726765394
1686343476548752100,11.614752197265625,-0.026233305876515803,-0.00620353081524372,0.06061671005878597
1686343476558771000,11.62477099609375,-0.16427224177923053,-0.016761749708652494,0.041860863923467696
1686343476568790000,11.6347900390625,-0.3111778267592192,-0.006198854640126228,-0.04069470622092485
1686343476578809000,11.64480908203125,-0.39195816739201544,-0.006921323695778846,-0.14760054497420788
1686343476588829000,11.654828857421874,-0.36947098924126476,-0.04261398384571075,-0.21169274912383407
1686343476598847700,11.66484765625,-0.17821425789203493,-0.019265256962180136,-0.13086389317419378
1686343476608866800,11.67486669921875,0.07082070868704468,-0.06822130331099033,-0.0759387092879042
1686343476618887000,11.684886962890625,0.2848136245120317,-0.10353402423262595,-0.03954341729395091
1686343476628906000,11.694906005859375,0.5851081651419401,-0.13285714935064316,-0.17027999429404733
1686343476638925000,11.704925048828125,0.4381500462571159,0.05509001905918121,-0.08243742365743964
1686343476648943900,11.71494384765625,0.45560617143809795,0.08194996893405913,0.07903378922641277
1686343476658964000,11.7249638671875,0.7891191641241312,-0.03164367702007294,0.05991119213793426
1686343476668983000,11.734983154296875,0.7580939112633466,-0.10090835190415381,0.19103198268264532
1686343476679002000,11.745002197265626,0.31740879357066004,0.07110124266147613,0.2852253105854615
1686343476689022000,11.75502197265625,-0.2696750190258026,0.1482318286150694,0.2670280116483569
1686343476699040800,11.765040771484376,-0.7246113283783197,0.17287176435291765,0.213116096457839
1686343476709059800,11.775059814453124,-0.8548024733901023,0.24897768343389032,0.2768254387697205
1686343476719079000,11.785078857421874,-0.7856880206316709,0.28431553879678245,0.35522323164753616
1686343476729099000,11.79509912109375,-0.6064064257690682,0.2874415618628263,0.39025859693251547
1686343476739117800,11.805117919921875,-0.31670798835754393,0.3113420774102211,0.4756345217272639
1686343476749137000,11.815136962890625,0.004841594812273979,0.24290391647815704,0.43335517666339873
1686343476759156000,11.825156005859375,0.24949615435004233,0.07054711591005325,0.2567956637084484
1686343476769176000,11.835176025390625,0.37226913205981255,-0.03193359987735748,0.03164396928101778
1686343476779195100,11.845195068359375,0.3712076403081417,-0.13456161518096924,-0.19254443307220934
1686343476789214000,11.8552138671875,0.25890814408408475,-0.21936638902425765,-0.322018881182
1686343476799233800,11.86523388671875,0.14488838167237117,-0.25800796210765836,-0.3451276618298143
1686343476809252900,11.8752529296875,0.0824269753286615,-0.23484394414126872,-0.29256650366112585
1686343476819272000,11.88527197265625,-0.04612928022397682,-0.23879881924688814,-0.2428497751381248
1686343476829290800,11.895290771484374,-0.08406710721850395,-0.18937223277688026,-0.1416018890812993
1686343476839310800,11.905310791015625,-0.03549160288618877,-0.13711071514189244,-0.17505502667613326
1686343476849330000,11.915329833984375,0.06822424418674781,-0.18752046743035317,-0.22778489247523248
1686343476859349000,11.925348876953125,0.2699789704084396,-0.18096622348129748,-0.2627174549728632
1686343476869369000,11.935369140625,0.4771159924566745,-0.157044665145874,-0.19347148478925227
1686343476879388000,11.945387939453125,0.5689391206294298,-0.10373860689401626,-0.07860942633450031
1686343476889407000,11.955406982421875,0.6581500204771756,-0.006660042411088943,0.06761668848134576
1686343476899426000,11.965426025390625,0.801809134349227,0.0289525382399559,0.24091310798712073
1686343476909446000,11.97544580078125,-0.15945757150650022,0.16099194146692752,0.3036687663033604
1686343476919465000,11.98546484375,-0.34815994219779967,0.1518266382366419,0.1454538883343339
1686343476929483800,11.99548388671875,-0.7075952385824174,0.10288988111019134,-0.07135828616246581
1686343476939503900,12.00550390625,-0.9869757321298122,0.07918985657095909,-0.04867511051557958
1686343476949523000,12.01552294921875,-0.9935796604394912,-0.008892916029691696,-0.01822597704231739
1686343476959542000,12.0255419921875,-0.7756202156037092,-0.04492459887564182,0.041411403122916815
1686343476969560800,12.035560791015625,-0.5573229171156883,-0.036199440628290176,0.12952946623265743
1686343476979581000,12.045580810546875,-0.42266544034481046,-0.07884615769982338,0.03615684359557927
1686343476989600000,12.05560009765625,-0.1902460564693436,-0.18747721281051635,-0.2045445944022387
1686343476999619000,12.065619140625,0.09781743668410926,-0.25192542732357975,-0.3747290193673223
1686343477009639000,12.075638916015626,0.2408920286664739,-0.20369009646475314,-0.3035275312017649
1686343477019657700,12.08565771484375,0.23980419689714907,-0.1191127016365528,-0.09790770878344773
1686343477029676800,12.0956767578125,0.21071663410067556,-0.09447218137681483,-0.011815233217179774
1686343477039696000,12.10569580078125,0.1751421021713875,-0.09920213250815868,-0.04191504179611802
1686343477049716000,12.115716064453125,0.12717442753911018,-0.15310907926261424,-0.1559922334834933
1686343477059735000,12.125735107421875,0.00932493250509724,-0.10219430006146431,-0.15066884650364518
1686343477069753900,12.13575390625,-0.0967652242174372,0.008715221375226973,0.007854001436010003
1686343477079774000,12.14577392578125,-0.04109711300935596,-0.01638473308980465,0.06758950821347534
1686343477089793000,12.15579296875,0.05222469275593757,-0.032982232147455215,0.08029343389868736
1686343477099812000,12.16581201171875,0.06088204646408558,0.021187164935469627,0.07690262241661548
1686343477109831000,12.175830810546875,0.11519877959582954,-0.018250526961684225,-0.06122654905281961
1686343477119850800,12.185850830078126,0.11840955833587795,-0.005154898545145988,-0.14219305990748107
